ax,ay,az,gx,gy,gz
11876,3476,1956,156,-372,-307
10596,6884,1040,-188,-154,-207
12020,13004,120,-126,310,211
15404,12960,1640,185,666,-30
12796,5644,872,426,-24,-596
12620,4632,5528,221,-177,-42
17252,9896,3780,-367,77,107
18456,12376,6252,-238,410,574
14536,6240,3960,257,-239,267
7132,3176,-604,-167,-1273,-341
10184,10292,-3460,-130,378,-10
14944,11740,5812,254,498,733
17224,7364,12180,304,-282,-298
18056,10156,4408,-241,-461,-336
15080,9796,6400,-187,159,191
13252,5456,3640,43,29,334
11116,5776,1980,-140,-298,-128
11892,14236,-6184,29,790,-48
15736,10320,10148,441,11,-185
12308,6084,3232,243,-235,-188
15760,7248,1328,-454,398,285
14472,8964,-508,-98,240,621
11620,4848,3832,132,-689,-182
13048,10812,1856,-139,84,-566
12944,8384,3648,547,236,359
14056,6240,8116,-65,-611,90
16388,11340,-924,-281,480,592
13180,5884,4956,257,-214,143
11800,7456,176,-287,-528,-1065
11056,7820,-480,439,842,471
13912,4708,6540,250,-73,-24
15744,10052,-2100,-387,425,164
15724,8160,4232,87,123,268
11912,6060,5012,-108,-621,-882
13712,10328,4896,74,421,-9
15236,7456,5440,275,110,-43
17024,10176,1196,-336,19,211
16096,9452,12,-34,550,228
12116,6636,1168,19,-726,-586
14620,13276,6224,2,596,-145
13580,5628,5532,406,99,157
15028,6996,4972,-370,-319,41
17736,10984,6104,-204,294,364
11936,3800,5208,205,-616,-290
11608,10496,-2496,-103,224,-568
12316,8456,952,375,-37,313
15348,9844,3892,-201,-414,43
17888,12328,6776,-189,526,399
12640,5020,5228,227,-518,-283
10140,9404,1140,-245,37,-706
13316,8580,7400,345,-72,347
12420,5544,5680,-179,-524,49
18692,13164,6860,-336,528,532
13644,4688,6172,250,-437,-1
10472,7668,-696,-237,-10,-933
11008,8064,-3784,314,274,612
14464,8292,4108,190,59,222
18236,11444,764,-307,450,338
14860,6988,3684,188,187,396
10804,6016,5064,-102,-550,-920
12272,10660,-748,-64,469,127
16356,8484,8144,345,20,171
15824,9996,2396,-335,-162,-35
18652,10936,7268,-118,159,364
11244,3984,6152,16,-475,-571
9708,9596,-3424,-366,-391,-212
14612,11516,1252,336,543,678
13356,7644,3012,165,-238,-272
16496,9512,864,-150,465,430
13108,4176,5460,117,-453,-321
10664,6280,3508,-225,-366,-80
13308,11964,-3696,158,992,434
16052,9976,4188,367,-195,-121
16056,9140,-2428,-192,301,13
13616,5124,2168,31,77,-26
10500,3988,5368,-142,-811,-158
15092,14224,5780,-97,998,194
16048,8880,8144,509,238,26
15316,7436,8968,-28,-219,-132
15368,8344,1776,-255,138,-174
8748,2804,4336,30,-823,-107
12176,11572,140,-302,108,87
16300,11312,7728,476,145,559
15468,10124,6556,-45,-98,-371
16992,9028,4024,-98,155,302
8420,2704,-512,-6,-747,-464
13572,11272,4384,35,817,-22
16112,7464,7456,196,74,-69
17100,9600,2764,-348,256,482
13932,6996,4764,83,-200,238
12624,10140,392,-93,397,-327
15836,9604,7624,366,-60,-219
12596,6964,196,-379,-459,-631
12960,5996,4500,-6,-165,301
10464,4396,-368,-281,-439,-127
16328,12068,6640,150,414,623
14868,10708,3532,-116,-534,101
17244,11752,5104,-178,316,450
13296,8480,1968,-264,-65,-923
16304,12404,10416,438,284,132
18308,9828,7640,-284,-393,-278
13480,4652,4244,197,-187,-189
12696,10668,-608,-152,46,-546
12856,5656,1536,429,-192,-504
14324,10132,2800,-247,30,405
9024,4408,2364,46,-811,-56
10896,8592,-5816,325,966,382
14136,7940,4020,-255,-444,-52
15296,8716,4156,-33,205,854
11208,9804,-1020,-125,-153,-13
13608,10160,4100,461,268,301
16492,10212,-1264,-252,63,-56
13744,7520,3756,188,-142,0
12764,13596,-3632,74,460,10
16020,6156,11316,511,-174,-435
17040,9800,6756,-371,14,47
9932,3672,6920,93,-903,-349
12196,9460,2296,88,259,171
12336,5240,4452,111,-376,-23
15552,9264,5108,-272,491,572
11308,5068,284,-120,23,-284
15224,11224,2240,343,525,785
15828,10076,6360,-178,-276,-171
17048,9632,5408,-101,39,313
13636,9384,2084,-212,254,-612
14708,11524,1880,469,113,-43
15732,7824,4128,-253,-68,-288
13660,3584,5164,198,-219,-269
13528,11128,1496,-199,29,-694
12800,7256,5180,370,-584,-158
13344,8688,448,-177,361,598
9120,1312,-116,-76,-634,-194
12812,11316,-880,-121,1002,24
12980,4916,2100,285,105,86
17644,11616,7864,-361,392,708
12452,6096,2904,-52,-551,-410
14728,13372,-420,71,843,-116
16136,8208,7908,277,-272,-355
15660,8892,872,-174,257,56
8700,3596,-392,-116,-737,-660
11444,9512,-780,459,559,325
11080,4768,4928,-16,-727,-90
15304,7676,5700,-168,303,741
10284,4452,-2080,-306,-439,-153
15040,11504,4292,331,358,752
15192,8160,4656,-275,-219,16
14924,6780,5464,47,257,86
12840,9588,1072,-148,342,-347
16876,7848,10380,550,14,-315
17504,9604,3436,-296,210,-195
12236,5180,3184,54,-200,-563
14480,13152,6488,-172,-142,-178
14424,6692,8216,302,-252,-134
16344,11028,4472,-407,411,571
12444,5400,3864,-287,-483,-454
14836,13148,-632,150,914,466
15168,10000,5344,54,-243,-179
17480,11956,5236,-220,211,344
13344,9100,3640,-198,-309,-825
15996,11796,8832,480,238,185
16008,8124,4448,-227,-548,-462
12596,6256,1948,125,-253,-91
11316,10836,2384,-238,-60,-507
14204,9188,8800,430,86,330
12096,6324,1224,-191,-510,-101
15308,9268,928,-315,536,485
12864,6244,5988,-39,-495,12
14644,13176,2836,-3,640,125
15820,7104,9536,451,-84,-206
17764,12796,4908,-253,275,449
10504,3268,1760,93,-968,-349
14776,9744,7484,111,288,-218
12684,6056,4212,200,-282,-502
14008,7960,4392,-69,49,575
11140,7068,2784,-233,-233,-143
13452,7968,4976,371,220,327
17544,10344,3692,-370,351,500
12580,6360,6860,111,-523,375
14416,13348,3692,-71,412,277
15136,8252,7744,160,-383,-358
16044,10684,224,-15,601,183
13876,9828,2648,-148,140,-591
13812,6412,1264,575,81,-383
14292,9568,-608,-320,87,166
12428,7712,7336,-134,-889,-681
10992,6916,228,480,6,285
15080,7528,1104,-344,247,269
11540,4232,4876,-167,-505,-294
14932,12000,1840,116,604,596
18104,10944,4700,-403,-86,108
13148,6712,4684,156,-233,422
14468,13244,1756,-69,483,-6
14488,7180,4532,131,-36,-445
16656,8736,4652,130,68,449
12016,8356,1704,-64,299,-823
13020,6420,4264,467,-132,-213
14824,9408,3280,-206,203,514
10100,1836,236,-69,-426,-310
14952,12776,-144,259,660,668
14840,8108,2936,-298,-163,-31
13816,6968,4204,34,173,111
14124,12584,5584,7,244,-68
13316,4692,1896,507,-338,-513
14988,10384,4228,-268,27,175
11036,6120,5916,-108,-787,-100
15344,11560,4828,220,454,483
15988,8124,4040,-326,-200,114
13556,6632,3580,97,225,113
12908,11496,-304,-120,-40,-178
16128,6952,11704,404,-238,-527
15040,9260,1452,-214,282,558
11108,3184,3808,-50,-323,-260
13160,14376,256,-71,562,432
12972,6432,808,455,53,-148
15352,8508,3484,-172,201,235
7496,2644,-1232,45,-867,-396
11720,9280,-1572,229,1016,377
13076,5828,6356,-56,-472,30
16400,9784,3484,-66,349,496
11728,6728,-160,-105,-364,-726
14492,9152,6816,326,25,-99
13044,5976,6020,-206,-416,-215
14184,6392,4420,-4,168,503
10880,9628,-816,-234,-409,203
14644,7300,3440,430,255,-223
16156,7968,-1312,-266,242,-13
11720,3552,4208,70,-494,-576
11508,11364,-3020,-180,285,25
13528,5884,4444,207,-141,28
16908,11164,6248,-319,439,635
12752,6876,2220,-48,-665,-383
12016,8980,-3364,306,542,-120
11868,5916,3468,104,-532,-402
15484,8648,4972,-226,343,452
12584,6820,3932,-132,-107,-66
14276,11044,1780,363,899,379
15508,8304,5928,-39,-570,-307
16056,9116,3712,-90,303,-47
8040,4780,-868,-78,-606,-80
14828,11184,1484,212,624,707
15396,9872,5496,-157,-367,-309
18356,10080,6556,94,433,404
9540,4108,-5932,-89,-155,-1054
12116,9116,-1128,252,179,661
14972,9296,4732,-204,-540,-40
16068,11668,2008,-249,202,520
11028,7744,-780,-10,-325,-565
10896,9112,-4524,347,811,-78
12344,4716,4588,157,-245,-173
15516,9812,748,-305,400,680
12968,6796,3248,-132,-660,-458
14224,12380,-780,164,737,-29
12688,4604,2896,273,-435,-530
14976,10144,3200,-385,307,584
11900,5640,3524,-36,-647,-55
14232,15860,-280,-128,491,48
13084,4976,1376,440,-326,-343
15272,9916,3216,-201,301,167
9168,1444,716,38,73,-126
11364,12276,-4332,-121,34,329
13568,7632,-1792,491,259,-156
16756,8088,3476,-288,243,-450
12200,4564,4792,96,-553,287
12236,9676,5332,-307,-135,-76
15920,9984,6412,400,64,371
17816,10252,8324,-282,-6,-224
13788,4248,5116,102,-174,-101
7604,6132,-2152,-240,-498,-205
14296,9200,6888,323,200,400
14952,9092,1760,-382,-140,26
16028,8460,5036,168,313,155
10156,6412,-2632,-324,-116,-995
11928,7084,512,563,486,250
14620,5740,3636,-322,-399,-188
17740,10848,6100,-26,421,533
13664,9316,4396,-244,-359,-786
11832,8604,-1464,415,437,321
11940,5592,5428,-45,-834,-368
15912,9100,5588,-272,609,642
13164,6188,4980,-145,-545,-175
15056,13224,-372,38,886,-202
13016,4396,3732,383,-480,-495
14056,9100,856,-257,286,553
13572,7176,6332,21,-214,161
11232,11572,-3640,-98,439,-88
12772,7952,-424,529,317,123
12400,7128,-544,-107,-128,-657
14628,8880,340,-207,133,489
12936,6460,5060,-163,-369,-243
16164,16480,5136,-25,741,-132
12612,3648,580,493,-226,-335
13844,9340,880,-262,249,386
14428,6872,8412,-66,-280,232
10940,11872,-3848,-201,83,-18
12376,9168,-1908,561,535,107
13400,7024,1028,-77,-231,-527
15076,8720,1612,-184,311,594
13392,6096,5820,-170,-699,-195
15880,16816,5072,-4,679,-64
12408,3680,3200,437,-147,-475
13888,6700,-1056,-283,83,131
12720,5800,3620,-65,-110,316
11880,8480,-32,-228,-137,-166
14736,10960,4384,461,438,181
12672,6476,-88,-46,-483,-554
14132,7872,1608,-100,344,535
9712,4600,-960,-193,13,-534
15452,13860,524,108,711,276
13332,7388,1640,273,-32,-393
16256,9212,4600,-261,198,-36
10140,5964,3456,105,-612,-221
15260,12528,5588,-126,523,84
14112,8188,5928,246,-224,224
16320,12212,-1864,-222,396,457
11220,4756,2424,225,-577,-277
14936,12504,5152,65,902,-402
11948,5012,4524,327,-315,-125
15844,10332,3112,-315,649,572
12816,6924,5792,-62,-574,-39
16408,13904,3660,-33,518,-62
13452,5496,3416,197,-245,-345
15700,6992,1276,-55,429,-57
9712,6088,1744,-184,-334,-744
10664,6528,-2148,519,483,308
15936,6728,5864,-492,96,-37
13056,6204,2312,184,70,660
13704,12096,2600,-116,462,13
14028,8492,-1092,487,372,-276
15556,10676,-1124,-159,500,266
11772,3152,5956,120,-524,-629
13704,10664,5740,-6,366,-121
13280,6260,5844,195,-267,-137
15876,8964,4988,-203,490,615
11912,7064,0,-199,-464,-41
14788,11360,4644,364,522,412
14548,8776,-376,-239,-124,-193
13556,6028,3604,279,-11,321
10708,8172,-1800,-211,210,-786
12092,5952,2688,476,-116,-216
13656,8872,392,-262,313,596
11352,3492,3940,-110,-479,-224
16084,13812,5508,-140,475,452
13828,8604,1828,212,-257,40
17364,11148,4656,-188,346,358
11376,7228,-36,-194,-297,-691
13540,8456,2836,555,242,-21
12408,7216,1004,-404,-470,-638
12504,4628,7780,127,-497,190
10064,10668,-4268,-313,-50,-67
15392,7760,7852,314,-17,87
17268,11264,2652,-394,141,642
11904,5904,2316,28,-491,-210
15268,15428,4164,9,473,83
12304,4524,-684,407,-347,-341
15756,7956,3508,-369,317,-78
8340,3112,576,-104,-1008,-357
14704,10128,9064,295,60,715
14308,8128,4444,-277,-207,-173
14504,7320,3904,75,167,578
13040,11312,3940,-195,85,305
15600,9292,3232,414,218,9
18012,12024,1760,-287,694,429
13584,8244,7172,-28,-695,-484
14592,10732,2152,527,794,439
13328,7464,-1040,-118,-280,-360
11232,3840,-20,169,-95,-409
15184,13576,4144,-96,393,-441
11512,5168,-916,272,-31,-608
13824,8168,1072,-72,34,527
8024,7752,-2648,-86,-91,-176
13296,7944,4592,401,226,263
15932,9780,2012,-482,371,506
12316,5780,5144,-31,-523,-97
16292,13400,3628,78,640,393
15344,9364,5484,-137,-414,-304
15176,7704,4304,64,429,147
12208,11520,-904,-169,73,-206
13744,5244,5196,517,-244,-212
16064,9900,3984,-248,162,30
8936,4732,-3788,-109,-263,-951
11956,8416,1252,436,45,152
14280,7304,-856,-280,294,88
12004,3160,4668,46,-136,-198
15416,12500,6412,-228,485,145
12676,6216,4620,-136,-472,-34
16504,8764,6144,-41,-93,777
13884,11128,5268,-58,445,225
15620,6160,9556,314,-74,-129
18404,13008,6104,-248,516,304
13732,9120,4876,-260,-278,-840
18232,11252,12392,421,-79,-27
16964,9472,-472,-261,182,-27
10720,3128,520,135,-487,-537
14988,10620,6276,335,766,-170
11708,6368,-672,-79,-264,-450
12084,6292,2056,139,-471,322
8592,9624,-6252,-164,303,-83
14020,6656,3724,266,-157,-118
16364,9812,3648,-412,400,516
13468,7128,5588,-168,90,-305
15320,11428,5916,403,414,562
16140,10256,2156,-397,20,150
13676,6208,6028,113,-110,-14
16024,16408,5412,-79,586,25
13600,5940,2668,439,-161,-121
16936,11172,4292,-30,290,499
11816,5708,2436,-4,-349,-885
12688,7988,1228,347,138,-117
16552,9176,6540,-332,-115,-415
10340,3552,1648,162,-215,-89
13400,11172,4208,-177,190,-8
13608,4696,5816,208,-368,-91
16440,9880,5900,-293,465,540
11028,6704,-1124,-107,144,-285
15764,11812,3880,361,479,694
18444,10428,6412,-391,-140,156
14124,7188,4524,92,-143,87
14960,16236,2308,-175,544,13
13724,5492,3056,370,3,-181
16300,11044,1112,-117,310,468
12600,8916,2432,-81,-335,-826
16320,10452,11344,415,54,-5
17980,8832,8132,-290,-457,-533
12040,6088,3968,122,-466,192
8948,10048,-3736,-196,21,-245
13064,6488,4548,366,-245,110
16340,10564,2184,-413,430,430
13632,6800,6588,58,-166,100
14424,14432,2448,-98,355,379
16412,9492,5248,429,-18,-89
16988,11740,-1368,-239,668,292
12108,5344,3380,85,-629,-405
14536,13608,236,23,356,-71
14548,7528,7232,450,-243,-633
14320,9396,828,-256,393,229
10028,3636,6272,32,-724,-165
14268,11932,4276,-312,241,80
14276,5924,6824,269,13,-92
18356,12120,4376,-352,429,720
11172,5764,2724,134,-320,110
12952,13028,-544,-188,218,-68
13764,7148,-1304,458,133,-359
18052,8408,7756,-181,202,-292
12872,5232,2976,135,-50,-40
7752,4740,-2428,-229,-588,-278
15168,11512,8484,191,328,566
13168,7028,1980,85,-257,13
16752,13004,512,-331,587,790
14068,6728,7492,57,-305,-51
12872,12728,112,-151,342,-324
16888,11656,8160,533,544,7
13844,6872,5756,-99,-540,-647
15360,8856,4576,-264,-74,344
11368,3352,4780,-126,-571,-308
14836,14184,3176,-275,221,239
13480,9764,3132,463,196,574
15400,8084,5788,-224,-440,-282
17568,12156,5928,-148,369,335
13264,4100,7716,198,-407,-527
12680,10964,-236,-201,0,-656
12968,9880,3264,399,-89,154
12648,5408,3624,-195,-589,-123
17548,9600,7848,-404,359,493
12060,5060,4964,-61,-711,6
11976,11868,-3292,-169,351,-46
15916,12196,6752,473,440,-17
15488,7912,6936,38,-323,-362
16948,7380,5160,-363,121,-183
10056,2424,4968,95,-720,-250
9568,10120,-3752,-251,216,-160
14868,11736,1964,380,445,452
14472,7820,5456,-50,-449,-14
16716,11456,-1044,-318,507,438
12064,5704,2340,247,-237,-43
10852,9164,-3624,-127,111,-806
10776,9616,-2420,462,626,283
12288,5636,3024,262,-181,-153
17824,10872,3456,-366,555,586
13452,6076,1620,129,200,588
12548,7492,3236,-257,-65,-602
15772,13080,2140,220,693,66
15516,5968,9428,304,-114,-571
14380,9880,2504,-276,-18,51
9592,3568,4092,1,-697,-160
16188,13656,7056,-247,266,214
14684,8216,8636,261,-148,254
17464,13288,1948,-243,563,399
11612,5092,896,236,-444,-207
15264,13460,6632,-11,668,-360
12224,4864,3692,407,-247,-198
18112,11092,3940,-396,467,578
11452,5292,3460,57,-372,209
12888,12848,-312,-194,486,-237
16820,7880,9692,463,-20,-301
16660,8692,6244,-343,189,-592
12572,5480,5572,34,-374,305
12504,8992,5604,-251,91,-18
14484,10428,5516,420,254,497
17032,10768,5380,-175,-121,-162
15536,8592,932,103,115,535
9776,4720,-2596,-143,-607,-763
10916,7948,-2236,405,739,601
13004,5308,6616,90,-322,-36
17952,11936,6632,-259,450,617
15024,8220,8708,-84,-778,-460
11848,10236,-5292,10,410,-203
14388,5784,7860,247,-693,-345
15196,10360,-40,-342,416,484
12388,5868,2868,-10,-622,24
13748,15520,-944,-65,379,43
13404,4636,3732,577,-230,-193
15040,9972,152,-263,574,90
10352,3016,5492,76,-550,-103
13748,13652,-312,-294,406,106
16408,8352,7964,424,192,57
18124,11224,2100,-289,328,168
11784,3500,-524,104,-235,-541
12084,11832,6504,-168,224,-391
12868,7404,3748,415,11,121
16436,8972,-364,-446,-76,165
16624,8312,7296,71,301,173
11876,6604,-4,-183,-113,-707
13132,9016,5484,461,68,128
11884,5324,2020,-182,-652,-120
16448,10760,5952,-190,126,924
11544,7096,-668,-103,135,-602
14968,12272,1868,188,778,-28
15240,5872,7980,233,-437,-689
14908,8464,2468,-277,332,586
13384,6220,7372,17,-540,118
13648,12808,1220,-179,428,12
16160,9744,5068,514,159,-162
14608,7696,-2520,-380,301,-386
12708,4448,7492,41,-588,292
10876,8568,-232,-199,73,96
14420,10772,4284,296,395,445
15556,8072,7372,-78,-434,-410
16796,7512,4404,-188,188,-146
8472,1364,1300,36,-775,-93
15920,13988,5364,-165,605,305
17336,9632,9636,410,-109,-199
18148,11268,3916,-231,388,256
12544,5256,5020,112,-324,-573
9520,9404,-2632,-122,282,-101
14828,10252,4172,331,118,164
16212,9904,-928,-401,210,263
14028,6660,7816,91,-260,2
9728,7560,-5760,-159,266,-743
10348,7060,-1976,442,-110,131
16752,8704,2420,-443,-49,-114
16132,9036,3228,-65,22,647
11932,9628,-1244,-149,304,-658
12752,9556,-2632,492,185,-24
12008,7004,1380,-156,-428,-281
13624,6756,2612,-158,16,559
12728,7720,4256,-214,-321,-144
14852,11952,4284,333,558,253
14664,6404,6784,-8,-639,-499
14760,8152,4028,8,68,398
12908,4896,5712,-255,-113,-441
15392,11884,5252,131,699,386
15168,8312,6812,277,-130,-412
15696,8708,2052,-251,136,54
10888,3792,8856,114,-668,-243
13288,12916,-1712,-166,945,120
17040,10068,7708,369,-63,-98
17732,10824,3912,-179,435,232
12776,2696,7200,13,-388,-623
11132,11240,1168,-294,169,-235
14752,7820,4804,420,131,371
17856,10316,7104,-386,-23,-78
13356,5020,1508,253,282,169
9480,6852,672,-297,-441,-681
13276,8916,3652,356,418,420
15284,7460,3972,-317,-177,127
15724,6872,5984,128,423,115
13300,9148,2836,-78,129,-503
14564,10656,5348,378,81,-337
14632,8080,-652,-336,-57,-170
15296,7560,5324,55,80,539
12592,8056,2468,-184,-22,-99
13420,11596,-1848,476,245,109
17012,8004,2004,-319,-569,-495
12248,5948,3492,209,-340,159
12528,11568,7156,-391,-538,-24
15732,10660,6124,374,132,378
18784,11752,5832,-361,179,353
11756,6048,1724,-4,-614,-389
14932,12432,1712,110,488,-46
14240,5532,6352,172,-194,-813
14404,8180,3852,-38,15,456
8248,7244,-1932,-197,-77,-266
14932,9492,6560,372,311,375
17152,10984,3424,-355,246,584
12548,6556,5252,-16,-682,-165
14616,13280,-1832,5,921,-198
12788,6044,-268,114,-371,-419
15776,6504,3468,-37,234,-10
11300,9464,3760,-324,-376,-767
10280,5552,-72,574,261,27
16928,11056,3232,-375,447,536
11372,4996,2080,-143,-363,-216
16232,14084,3028,298,611,655
15208,8896,708,-297,-34,0
13616,7612,184,77,-69,33
15792,16156,2760,71,511,115
15324,6320,7656,282,20,-521
15784,6724,2968,-14,356,-83
11744,10316,3724,-208,55,-805
14184,6844,10472,404,-452,-120
14676,9616,2380,-265,211,573
9968,5040,-364,-242,-474,-273
12944,6956,4340,424,352,350
16856,10800,3216,-386,390,691
12512,5608,2960,-222,-482,-240
15116,11728,3672,434,297,616
19104,12348,5148,-363,190,317
13800,6888,4872,-123,-560,-502
15380,13340,4396,355,467,239
15968,10072,-2220,-209,204,-35
12332,2920,3612,211,-551,-402
16340,11240,7884,50,338,-362
13920,6748,4964,-64,-758,-549
13596,5628,4864,10,-126,453
10216,10356,2132,-353,-440,-102
14036,6064,4808,317,-74,-55
18460,11228,7260,-368,306,759
12408,6344,2928,-134,-82,-267
14772,11224,5620,336,343,451
17148,11720,-1244,-333,175,-145
12544,6200,4072,66,-466,-410
14760,12420,2196,112,592,-75
13572,5884,2876,120,-195,-730
14460,6900,5048,-7,27,167
8684,5940,2160,-211,-368,-102
12952,6028,4820,340,64,86
18072,12124,3176,-369,489,706
11476,5236,1160,-116,-710,35
13200,11164,-520,312,899,349
13868,8632,508,-234,-28,-223
13296,7252,4952,227,-255,231
12156,10440,-1172,27,432,-93
15224,5364,7984,256,-222,-776
15232,8904,3992,-90,305,56
11000,9728,2776,-229,-432,-519
13608,7072,7868,440,-328,67
15044,9132,2716,-307,237,473
10316,4988,1364,-123,-293,-310
15064,11372,2628,323,566,488
16892,9340,1384,-396,208,174
11280,4864,2144,116,-458,350
13368,14988,-2028,-14,652,385
14984,7796,7328,228,-187,-192
15944,10768,852,-186,172,421
12064,7236,620,-144,-225,-788
14248,11232,5800,447,122,-81
14672,7996,2992,-306,-447,-501
12388,5336,8048,176,-598,414
11484,9072,3072,-388,-398,-132
14300,6856,7360,328,-36,177
16716,10420,116,-370,182,543
12548,6472,3716,-21,-638,-172
13492,12168,-2912,29,627,-8
15132,6936,7420,305,-342,-327
17208,7476,4944,-279,5,-143
11876,7408,7824,-124,-725,-417
11684,6724,724,292,273,449
14700,6648,6132,-333,-79,-58
13988,6288,2956,32,56,647
12276,11020,3940,-237,-174,13
14608,7576,1496,412,146,-176
16040,9620,-1932,-322,134,148
12828,3664,4716,174,-630,-435
12728,11244,-2828,50,850,-386
13124,5060,4592,225,-241,-339
13832,7860,1512,-93,534,511
10560,5664,-1304,-321,-448,-295
13804,9988,3628,436,445,636
17016,10788,1156,-280,103,274
15004,7700,9556,120,-50,-78
14732,16368,-1184,75,650,111
12204,3588,3076,410,-378,-350
15164,10236,2244,-341,131,-22
8392,2004,1288,-104,-880,-264
14160,9796,4280,338,543,513
18308,9852,5444,-376,-238,64
15856,7752,5772,177,362,517
13348,13172,948,-212,280,-361
17348,9988,10116,556,182,-268
16364,9212,-76,-364,294,-273
12028,3908,5484,122,-281,-236
12304,11628,-2176,-292,245,-15
14716,7688,5328,387,159,84
19944,12008,7436,-347,690,495
12452,5680,4524,114,-459,-429
14264,12296,1824,87,669,-251
12832,4604,5772,357,-581,-361
16048,10304,6524,-354,329,570
12896,5416,6008,-43,-417,-96
13192,12256,404,-119,525,-10
14096,4936,6004,460,-208,-164
15556,9416,1440,-259,363,21
11372,2740,4400,184,-287,-179
12132,13432,-3984,-257,416,144
14688,7976,2232,487,170,189
17972,9812,7956,-308,-247,-203
13552,4824,3312,68,-7,-90
10056,5760,3592,-168,-450,-245
15480,11284,4948,223,522,581
14808,7192,7176,99,-225,-244
16252,10760,2796,-97,277,348
9864,2992,5072,111,-918,-382
14068,11600,3688,-268,376,35
15100,8976,5048,372,-122,174
16124,11064,-3956,-274,489,-43
12856,4840,5040,145,-278,-126
9460,8220,-572,-216,-270,-414
12804,7200,3620,336,479,436
14848,9060,5068,-157,-290,-77
17212,10368,2936,-87,191,390
10260,4916,2884,-161,-700,-912
12308,9032,2732,177,564,243
13004,5076,2032,167,-149,149
17144,12356,196,-348,522,501
12112,6416,568,205,-475,-233
14172,13180,1940,-68,460,-426
12640,5416,3996,411,-233,-117
16188,9836,-1068,-469,207,579
12996,6276,5992,96,-251,229
11400,8200,-1576,-71,190,-322
13884,9932,3040,477,338,-185
13788,6648,4212,-376,-444,-93
16116,8480,5716,-1,29,694
12096,9632,84,-275,97,-559
15572,10580,5688,430,91,-185
15864,8928,4684,-309,-91,-357
12512,4480,5196,-58,-305,281
12904,11480,5108,-134,247,353
14628,7916,716,404,251,-143
16592,8440,-1524,-234,301,48
10768,2892,3648,90,-608,-514
11992,11176,-2968,-246,482,6
14548,7276,5288,317,-5,-7
19724,12432,6964,-311,777,415
12316,4128,5448,225,-565,-189
13048,10596,-2088,46,676,-434
13448,5464,6796,362,-265,-189
16400,11840,1628,-367,559,671
11112,4924,656,5,-587,-37
13884,15720,-1880,54,499,50
13500,6916,3424,389,-357,-537
15480,10192,2696,-250,213,293
14116,6696,7196,-28,-34,-193
12700,12892,-1336,-129,170,425
17308,10664,10620,456,307,-218
16484,8956,-832,-245,260,-142
12888,5120,6400,65,-671,-55
9136,7984,-2604,-307,-379,-114
14512,10028,3932,467,402,597
14500,8452,1380,-336,-217,-168
16788,7824,5760,90,-33,426
8648,5240,-1884,-224,-299,-886
14996,10496,8992,267,143,620
12244,5964,4120,-216,-609,14
17464,10940,5172,-172,294,522
12880,8696,2956,-69,-204,-649
12512,9048,544,460,911,7
12740,6232,5920,208,-393,-277
15396,8244,1556,-290,421,468
10924,4924,-164,-80,-146,-252
17000,13420,6124,281,856,321
16136,9740,7320,-108,-261,-452
16612,7660,2840,112,303,280
13156,9000,4088,-331,-529,-1047
14420,8508,9064,402,-131,63
16764,8528,3800,-415,143,-39
12236,3704,5108,-125,-367,260
14300,13676,2612,-216,215,314
12544,6424,180,398,107,25
17548,12728,1720,-208,579,525
11860,8452,2080,56,-457,-470
11876,8480,-2540,398,359,322
12380,6704,2068,-63,-338,-507
13436,6300,4248,20,-154,525
7380,6400,-4376,-228,-115,-161
13752,7764,5580,360,281,342
17460,9552,3480,-345,339,312
11676,5252,3216,123,-164,314
12456,11868,-1112,-14,753,-43
14616,5424,4604,499,-306,-171
15004,8396,216,-227,226,257
9920,2808,1568,23,-659,-615
12956,10724,3528,236,273,190
12212,5464,6076,-36,-763,-62
15952,8360,5464,-128,148,601
9368,8644,-2672,-291,167,-22
14512,10208,5888,487,273,594
16396,10024,-1224,-356,250,375
12400,5644,5176,40,-202,-57
15480,16456,5300,-105,424,-120
13648,7788,956,234,-152,-356
17268,9232,2520,91,365,406
13352,9532,3308,-276,-388,-809
15392,10556,6952,416,24,-487
15940,10104,2496,-350,350,-117
9444,2116,2672,55,-868,-445
12560,9668,5184,88,489,227
11392,4436,3060,-60,-681,-108
13848,6460,2744,-116,159,546
10152,9736,-1724,-318,-371,216
15828,8020,6048,330,-56,185
18872,12760,7532,-270,722,709
13432,6720,4704,-133,-236,-521
14748,11848,2848,317,561,295
13264,8232,-1100,-285,-543,-164
13248,5668,5712,207,-397,92
13076,11044,1352,44,521,-195
15624,6028,8520,193,-537,-656
15848,8864,3460,-212,51,71
9172,5444,1532,-134,-333,-377
14220,7924,8848,336,80,303
16560,7712,1772,-428,504,225
11336,4968,2640,40,-255,55
13748,14300,1088,-91,271,318
13052,7776,2332,146,-277,-189
17104,10676,3100,-40,464,221
12592,11248,-1788,-177,160,-494
14488,6160,4192,533,150,-346
15152,8604,-564,-245,327,171
11928,6000,5912,-61,-752,-792
12808,11016,3840,319,19,487
16140,8928,4376,-298,-422,-251
12488,4064,5296,44,-392,81
13164,11644,132,-220,491,9
13676,5620,3012,112,-51,44
16784,9968,6164,-184,305,753
11492,8128,1984,-166,31,72
14224,7436,2664,410,-68,193
17376,12264,516,-296,820,411
13176,8044,3148,-148,-476,-578
15388,12760,4120,391,391,203
16544,10512,164,-285,102,-84
11880,3956,1260,127,-725,-341
16284,11584,5652,159,474,-105
14388,7956,840,-65,-217,-456
13820,5368,7752,31,-311,-447
11832,11372,-4484,-135,526,-442
14128,5556,7536,204,-126,-556
15172,7832,7180,-28,-93,409
9728,6456,2980,-148,-120,-331
11908,4632,6008,429,22,206
16340,10124,3160,-418,361,521
10464,3476,2156,-192,-450,-325
14192,12780,8,158,656,574
14876,9208,4360,-225,-473,-3
15956,8748,3728,54,90,666
11420,12240,-4308,-140,534,-88
14180,8956,-1440,352,-131,-209
17488,12576,1832,-235,519,447
12180,8744,328,-18,-359,-522
14008,11328,2156,446,253,442
17648,9184,6572,-201,-526,-291
13476,5804,6684,10,-387,-335
12752,11060,-1248,-152,88,-454
13948,6484,7036,410,-331,-328
14668,10064,3216,-247,210,408
9376,5636,1640,-222,-530,-269
15240,10328,6036,277,634,479
18944,10816,6952,-447,-215,117
14300,6792,2888,106,-174,620
13280,13532,752,-143,235,275
16488,8848,7184,337,-172,-181
18160,12872,5468,-186,477,414
12108,8376,-168,17,-301,-527
12600,10520,-940,455,185,383
16684,8028,6668,-179,-318,-444
11308,5468,3368,120,-603,204
10184,10408,-5512,-88,294,-135
13832,6340,4772,305,-203,-130
16120,11272,1488,-380,584,564
12788,6220,7688,-195,-519,-197
16724,14036,5116,196,542,615
14736,8640,5116,-199,-457,-284
16548,10168,1552,-50,422,192
11020,9172,-2580,-101,59,-563
15740,10212,7916,490,29,-353
16856,9172,1692,-333,272,-212
10396,2276,3292,132,-637,-245
13220,11616,-1068,-8,856,-58
12528,5276,2276,144,15,-89
17724,11520,7396,-377,365,651
12816,7460,2912,-87,-622,-150
14360,13108,-1504,95,747,-48
15004,8600,4316,177,-288,-385
16024,8288,3848,-161,55,98
11052,5900,3396,-183,-948,-759
10276,7584,-936,458,510,567
12672,5296,7628,-26,-728,18
15644,9384,1220,-275,435,743
11368,5924,964,-129,-99,-246
15212,13536,-576,139,644,125
14844,9492,4272,12,-244,-473
16360,8692,1700,-17,211,303
11428,5880,3636,-183,-483,-1098
13860,10464,7628,387,223,390
13192,6292,8272,-172,-691,-88
14644,6488,4436,-158,155,706
12848,7320,4132,-239,-204,-116
14784,10812,3560,374,529,563
16228,9540,7468,-81,-84,-251
16784,9624,4296,67,110,471
10220,4704,-916,-183,-247,-989
14696,10844,8920,372,-9,361
11472,5136,5188,-104,-742,-54
15948,9532,2896,-229,484,740
13156,7012,3232,-131,-208,-226
16656,14368,3664,55,675,-11
15748,7800,7616,284,-91,-390
15728,9196,1860,-132,381,212
10224,3768,2452,79,-602,-543
11272,11316,-4960,33,770,-68
13036,4416,5252,235,-198,-4
15776,10828,-1324,-341,651,671
13360,6456,8856,-30,-716,-89
11880,12268,-3460,12,825,-59
16256,7572,9148,509,43,-186
16172,9144,-92,-339,154,-219
10304,2588,1612,103,-262,-161
11104,11164,1704,-242,209,-29
14512,7160,6264,338,96,222
16388,8988,1592,-349,326,275
14996,7908,8952,58,-159,-5
10920,7392,-2932,-15,405,-429
16600,9584,10612,361,-49,-350
13832,5584,4376,-349,-336,-140
15060,6848,5808,-54,49,492
12360,7948,3268,-195,-116,-102
15012,12476,3508,333,546,302
13812,6588,1716,18,-489,-447
15876,8920,2640,-181,191,-57
11180,6712,6380,-5,-789,-130
14432,12728,1248,-253,447,275
14356,6984,4892,382,-273,71
19384,11744,5516,-281,497,307
12248,4308,3700,218,-260,-274
10968,10124,2868,-285,130,-668
14040,7492,8832,432,164,205
15272,8960,4572,-353,-233,60
16432,9264,3740,-59,534,526
11948,4804,4564,40,-356,-436
12532,10980,-3052,15,580,-311
12792,4784,4860,438,-110,-244
17276,10936,1236,-454,300,518
13440,7096,4352,126,-175,411
13044,10124,2008,-186,2,-578
15588,9864,9320,347,-75,-11
11216,4784,3800,4,-560,-268
15076,8444,2444,-380,395,568
12524,5512,5112,-84,-606,-154
14536,14144,2864,6,759,-69
13416,4792,5904,417,-369,-333
13936,9464,992,-263,206,334
13384,4728,7916,107,-58,-258
12896,13244,-1200,-149,89,406
13700,7320,1424,381,28,-30
18316,8984,9384,-242,-343,-192
13824,4748,2880,8,-37,-18
10836,6048,4740,-233,-575,-290
16980,11764,8628,137,473,584
15176,8492,7308,241,24,-237
17024,11724,4516,-155,349,424
11824,2772,5856,61,-499,-737
14048,12288,3792,-147,84,19
14964,8440,7152,302,-76,143
16216,10100,-2064,-354,419,100
15416,6584,4336,264,264,271
12272,8500,3096,-229,35,-1068
15672,10808,11212,546,581,385
15476,8676,7536,-319,-475,-150
15396,8944,3084,-80,532,509
11928,8220,2048,-86,-255,-620
10568,8620,-5636,426,982,-86
12732,5376,3712,202,-128,-240
16100,9816,3928,-366,374,633
12796,6072,5052,-51,-741,-257
15792,14640,3288,16,468,-66
12616,5824,3732,366,-206,-615
13696,8048,144,-176,434,598
14048,6980,7556,44,-153,6
12948,12136,272,-211,289,-287
14164,10176,1656,474,-128,-241
16400,8764,6236,-326,-418,-453
12796,5788,3364,-38,103,449
12788,7024,3468,-235,-383,-210
14880,12384,1620,303,931,126
12176,5176,-1580,176,-125,-537
14368,9580,2712,-229,97,295
11808,4644,6760,-128,-427,-360
14220,12616,2220,-112,318,371
16432,8996,8072,381,-46,-252
16400,9772,-132,-217,545,234
10844,4216,2492,74,-491,-518
9940,10504,-5108,-195,163,-24
14672,6592,6332,377,41,310
18664,10816,7732,-357,29,-115
13776,7248,340,121,-52,405
8000,4168,-6044,-168,-282,-928
13860,9972,7520,291,335,626
13984,7988,6100,23,-237,-55
16616,11296,3944,-283,519,556
12292,4892,5424,211,-559,-165
13448,11808,-524,28,499,-363
12668,5416,5672,414,-194,-203
17232,10532,4400,-398,350,514
13468,6628,3372,80,-331,420
13400,13356,1144,-201,328,-389
13352,5376,-448,549,67,-268
17044,8916,6476,-390,-151,-533
11464,4268,3680,126,109,399
10028,9004,-2980,-230,-108,190
13476,9936,1968,430,311,318
13572,8096,-356,-230,-192,-237
14844,5756,3288,116,273,13
8128,4572,-2768,-263,-663,-551
12800,8724,1532,411,607,492
16196,10624,6320,-227,-185,-32
16208,9172,3212,-43,372,379
11484,6920,-300,-165,-264,-724
15048,11132,7948,384,47,126
12288,6884,2308,-64,-661,-317
15188,7996,5252,-173,91,643
11280,8016,1180,-241,-433,-158
13956,11644,396,312,470,481
13564,9100,-724,-98,-223,-329
15464,6268,2724,76,286,116
12076,9932,4476,-253,-513,-613
13304,9276,1116,405,509,457
17276,8728,4792,-389,-265,74
16268,9240,2716,61,-46,641
12188,10052,-580,-250,108,-532
11992,9004,-3152,512,152,4
17044,8476,5464,-412,-349,-603
12780,5640,3504,122,-162,365
8176,6056,-2792,-221,113,-114
14592,10892,1264,408,433,619
13908,7868,152,-164,-62,60
17552,11032,4324,-66,407,206
11572,6804,-1652,-118,-172,-724
15124,9956,9540,258,38,114
12176,5796,5996,-69,-708,-206
15856,7680,5048,-258,436,582
12824,5832,3840,-154,-512,-143
15724,14024,2632,73,778,129
16196,9624,6804,214,84,-303
15564,10756,2960,-151,229,302
10580,3952,5304,35,-646,-690
11640,10704,-900,14,699,19
14264,5364,5428,216,-342,-96
17524,12244,2380,-366,415,862
11752,5716,2004,0,-610,-75
16032,17168,5612,-137,400,-48
15804,8112,8764,474,-170,-273
15024,8456,1096,-243,333,86
8688,2868,-520,158,-865,-386
11156,10608,-2568,9,576,194
12584,5640,2844,173,-16,-74
18084,13012,6372,-330,450,730
13964,6844,5552,-114,-617,-426
14664,13856,2628,21,677,-92
14468,6676,5332,273,-394,-518
14536,10608,2648,-268,172,186
6876,1264,-1712,100,-642,-235
12860,13096,-3420,-199,522,161
12780,5528,536,275,119,103
17568,11856,4832,-297,768,503
13272,6752,5312,56,-510,-494
14296,12900,-1848,73,426,-67
12996,6252,5932,373,-487,-408
15376,9280,140,-255,303,370
13952,6964,4680,-67,-177,61
12256,13384,-1520,-149,179,283
16388,12096,8248,377,160,-113
17224,10060,2136,-288,29,-256
12904,4404,4984,162,-155,-98
11028,9228,3080,-204,-293,-637
14512,8120,10384,412,80,373
15852,7172,3892,-334,-114,70
16996,9336,6632,-46,195,673
13444,8944,4536,-177,123,-882
15116,10732,7956,460,117,290
12620,6144,4240,-110,-534,-731
14980,6976,7012,-68,-152,451
10208,4836,436,-197,-504,-217
17188,12000,9412,195,430,634
14680,8296,2884,-209,-640,-47
17032,10112,4904,-71,382,457
12288,8996,1760,-221,-178,-874
16676,11540,11044,523,305,186
15052,7416,4744,-242,-453,-516
13436,5456,7412,100,-155,19
10092,9168,2700,-255,-414,-200
13380,5168,7208,374,-83,217
17436,11268,924,-355,180,607
13384,6828,6508,23,-564,109
12700,15824,-3164,-111,396,36
15164,8704,5212,318,-309,-168
15852,8812,4384,-145,174,258
9024,3912,520,-10,-861,-555
14608,10952,8920,311,710,330
12092,5832,2316,-56,-380,-69
17644,11944,6528,-262,382,758
11792,6772,1292,-162,10,-453
14368,12256,2712,354,824,210
15872,6780,8860,19,-434,-332
14884,5420,3696,9,148,-57
9144,6728,-1696,-277,-393,-604
14252,8292,10144,316,-35,361
18548,11048,6176,-493,131,2
14004,6668,7356,42,-389,467
13452,11824,556,-106,329,81
13800,5696,3804,516,39,-213
16276,10700,1640,-128,339,289
11580,5952,5528,-121,-691,-857
13548,10928,6468,457,124,92
15040,8340,-348,-302,117,-83
14132,5540,7940,80,118,-282
14952,13300,5328,-303,307,231
14520,10336,2244,13,-462,85
16260,9480,3772,-5,431,657
13360,12540,1812,-297,56,-461
13976,6580,312,456,131,-232
16788,11120,1028,-122,544,302
9820,2248,1720,109,-713,-606
10552,9016,-4892,387,906,26
10572,4204,2092,75,-766,-202
13208,5052,4000,-50,57,631
12648,8244,5592,-308,-9,-156
14032,9680,4184,405,478,450
17016,9632,5640,-392,60,188
11824,5736,2864,143,-183,216
12140,12452,-2468,-6,868,11
13624,5520,4060,441,-176,-306
15372,8676,1412,-165,296,265
10248,4512,2396,0,-771,-587
13432,10504,3596,426,666,316
12952,6644,7160,-66,-686,-117
15192,7784,5732,-101,-13,532
10660,9716,-1236,-240,-255,305
14540,10980,4336,418,-11,322
18048,12204,1412,-420,288,169
13280,6256,5948,94,-359,-268
11260,11308,-4804,119,524,76
14776,6216,5364,444,-328,-398
14560,11144,1824,-238,364,133
11060,6572,7580,-68,-1169,-218
10444,7936,-5288,224,3,739
14084,6272,2988,-283,-330,-46
16056,8836,5680,69,57,638
11492,11924,-2612,-130,289,159
14216,6988,-308,430,140,-148
16792,12732,-1120,-230,744,485
10620,3732,1800,37,-862,-285
10972,8664,-5360,450,718,178
16800,8412,7608,-179,-303,-497
13108,5340,7456,76,-462,-35
11996,11884,-2884,-220,164,-87
13904,4688,5684,205,-130,-76
15056,8124,5416,-124,365,818
10664,9652,-536,-199,-46,229
13932,7344,1428,512,255,68
18316,12276,2324,-299,728,382
13396,9176,4396,-37,-693,-391
12492,10428,-3100,461,209,336
17020,7916,6308,-414,-585,-612
12028,4936,6144,106,-328,-260
12428,12476,-2360,54,882,-60
14028,4636,5480,182,19,-122
15884,9308,3724,-229,414,737
13060,6820,5032,-162,-54,108
14992,10668,5120,530,106,375
19720,12512,7144,-387,280,133
12404,5508,4524,85,-548,-433
14728,11096,1848,165,453,-15
12736,5268,2700,-2,-694,-673
12688,6408,2468,64,-158,343
8092,6780,-1880,-306,-433,-136
12836,4884,4972,327,-25,117
18624,11788,5368,-338,344,680
13236,6672,7448,-11,-671,-154
16768,16176,6076,52,940,-98
13152,6192,1108,325,17,-457
14996,9140,740,-227,124,-230
8608,4756,-2236,-160,-407,-396
14308,9052,3524,405,435,388
15144,8500,-128,-362,-119,218
13624,7076,2096,172,192,476
12764,10308,-576,-187,315,-423
14924,6516,5104,480,-59,-298
16748,8996,4756,-363,155,-401
11544,3800,5548,-59,-291,189
12156,11412,2816,-201,274,254
14332,8220,716,456,216,72
17680,10508,1404,-324,234,81
11808,1892,3108,88,-314,-664
11360,10336,-1700,-69,207,-180
13916,4732,6564,323,-223,-64
17040,10872,1320,-307,416,809
13288,6092,5052,-21,-676,-257
14364,13108,-2024,50,654,-31
16060,5484,10208,283,-389,-602
14264,9384,3352,-243,56,301
10876,3844,3652,-135,-441,-455
14492,13548,-2092,72,926,424
13924,7716,2228,164,-275,-271
16640,11244,3428,-103,371,422
9940,3984,6476,16,-727,-577
13988,11468,5956,-156,318,161
14996,7412,8524,208,54,146
16800,12920,-1168,-340,556,383
11684,5784,3412,162,-600,-282
13536,12216,2988,-93,456,-319
13524,6172,5508,319,-64,-122
16984,10596,432,-369,385,530
13964,7656,4836,121,66,15
13912,9764,5448,-109,341,-839
15192,10680,9932,479,-137,320
16224,9048,7604,-323,-89,43
16016,9356,2872,-75,480,419
11948,7312,3320,-44,-367,-559
10768,8780,-5312,403,902,0
13028,4664,4028,226,-188,-35
17224,10904,6296,-350,346,701
12280,5684,2720,-12,-625,-340
14960,13032,2380,86,405,-54
12528,6300,4788,342,-584,-337
15048,9276,532,-345,436,530
12936,5608,7872,45,-537,160
10604,11680,-6108,98,730,-14
11212,4960,-1024,389,-456,-521
14648,8288,-512,-302,411,277
12980,4836,6364,-41,-405,354
13184,11780,2128,-225,377,-229
16616,7536,9012,474,-15,-187
16396,8752,6056,-394,-74,-568
12120,4708,3504,67,29,296
10844,10380,-1308,-215,-190,163
15824,11528,6972,395,176,133
12944,7168,-252,-253,-509,-252
12880,6600,2120,122,80,141
10644,6644,1900,-207,-73,-169
14908,11476,2872,314,593,616
16012,9936,5800,-182,-322,-351
16172,8940,2188,40,295,326
10604,6072,5068,-79,-544,-669
11536,8984,-3380,315,705,626
13052,7856,3016,88,-252,-62
17056,12480,-136,-254,695,508
12044,4408,5512,157,-612,-489
9976,9984,-2432,-196,196,-516
12784,7624,5772,459,297,420
15012,8088,4940,-203,-59,6
16720,9724,5080,-220,383,224
10580,3448,1768,66,-893,-423
10212,10780,-6912,20,827,-132
13596,6216,4896,318,-69,95
16488,10664,-2008,-343,292,308
16576,8724,6380,74,281,157
13376,10084,2372,-166,-155,-670
10856,9364,-4140,406,541,218
11600,5072,5400,53,-439,-182
17616,11372,7552,-376,405,507
12308,5928,3052,-64,-665,-143
15164,16240,2768,-73,506,-2
16256,7792,8500,390,-503,-187
14324,9788,680,-241,185,38
7300,1780,-1552,118,-669,-234
13232,12680,-1916,-190,552,113
12948,7248,656,216,7,124
17868,12696,4020,-250,540,495
12896,8300,4048,-77,-478,-503
15288,11640,4284,391,781,138
15280,6020,8608,-8,-604,-512
15288,8360,4340,-37,208,65
8804,5584,-40,-200,-468,-357
12084,7872,-1616,346,10,307
15420,7500,452,-436,322,121
14152,7568,6948,22,-254,298
14000,14100,2260,-41,447,468
13828,6944,6444,42,-315,-215
15172,8116,4124,94,282,50
10808,12608,-6200,-14,346,54
15796,7428,7532,223,-268,-431
14480,5144,3372,201,-58,104
12836,11520,2220,-177,163,-531
11676,5680,940,101,-149,-610
12084,5716,4516,137,-425,64
11672,11520,-3496,26,627,45
13916,6288,2120,-224,-395,-23
11044,2804,2228,-154,-375,-212
13392,8760,380,292,708,311
17712,10960,4052,-361,474,675
12756,7224,5528,-228,-428,-161
15672,6116,7456,274,-248,100
16576,8796,5448,-52,261,575
14236,15536,1028,-46,707,38
16552,9568,8356,-50,-244,-406
12724,6452,3236,134,-533,-153
12472,10536,-4688,466,752,260
18048,9344,4500,-268,196,-194
9308,4652,2420,-147,-797,-779
11176,5128,168,560,294,-285
14408,9876,3072,-217,134,437
10728,8984,2824,-255,-452,52
14900,6588,5516,188,-163,-109
14336,8388,3648,-121,33,777
11984,12028,-2188,-230,-6,406
12920,7656,852,65,-257,-73
15768,8848,3604,100,358,-52
15820,15012,4676,-21,269,39
12972,5164,1656,76,-541,-535
13216,4412,4628,118,-256,-189
14804,13092,6320,27,710,-325
12204,5524,5308,13,-613,-191
14512,6484,5204,48,-57,346
14384,12588,4288,-329,176,-29
13884,6460,2728,189,90,114
15568,8528,4288,-78,311,610
11956,9692,-1428,-274,-12,-199
16036,9272,6688,442,87,-215
16128,10952,404,-130,361,376
11136,5000,-916,-110,-451,-947
12276,8164,2480,462,197,-122
15700,8732,1284,-313,166,-22
9556,1180,328,-34,-809,-141
12376,9440,-1868,138,783,211
12792,8264,920,-255,-601,26
15396,7640,6360,43,-55,627
13264,12512,1664,-149,350,18
15608,5872,9324,371,-160,-306
16496,11488,1092,-132,228,446
11968,6924,2420,-44,-325,-739
10404,9876,-4072,268,-137,-16
15252,8020,5848,-365,-575,-377
13640,5272,5380,101,-252,283
11872,12976,-3188,-221,478,-116
14808,6676,5828,286,98,46
15944,11832,-2720,-291,733,664
13452,6760,4316,-115,-666,-479
14176,12436,-1348,250,672,62
15976,7624,8940,24,-552,-565
15032,8696,2696,-91,223,-71
10584,8104,1520,-152,-438,-315
12008,8188,-1244,319,112,283
18224,9932,7628,-496,-147,157
14324,7084,2720,151,-212,589
12604,12200,100,-212,385,-149
15616,7048,6060,466,297,-325
17948,8920,4312,-268,175,71
10888,4056,1200,43,-672,-630
14208,11588,4968,-92,21,103
14724,6876,5856,271,-34,-108
16348,10988,-620,-309,624,683
12076,6428,3880,-44,-587,-217
12280,14388,-5256,16,671,60
14588,6264,6424,508,-125,-445
15124,9352,2552,-230,306,218
10400,1260,2436,47,-670,-138
13724,13532,-1200,-167,1012,42
12920,7176,376,353,-115,151
17032,12604,-88,-304,598,454
13488,7728,6560,-6,-803,-353
15528,10820,5256,173,500,-84
14160,5732,6132,235,10,-678
13808,8408,-204,-99,236,320
10028,6020,4048,-295,-272,-286
14616,11516,2548,225,614,450
15692,8996,1924,-258,-122,142
16920,8836,5196,89,160,388
12532,12860,-1048,-181,476,-421
17420,10032,10636,566,338,-277
17884,9340,5132,-267,225,-19
11312,3244,5544,61,-728,-557
13212,12024,1152,100,791,138
13112,5076,6384,145,-391,-138
17816,12056,6372,-387,445,559
12940,5864,4956,-165,-569,-162
15392,12936,72,315,874,370
15484,10508,4732,-16,-158,-457
16356,8940,852,35,277,351
10072,5012,-2736,-201,-289,-1022
11448,8164,-1548,518,281,143
14132,5500,5044,-230,-323,-44
14036,6708,4160,-72,48,604
11120,10280,-1400,-217,-258,191
15792,9176,9204,351,7,131
17796,10812,6908,-360,88,-174
12496,4932,3384,274,-300,-41
9660,8840,-3220,-131,-1,-445
13464,7020,6668,459,-307,58
17280,10540,4632,-364,453,575
11740,4964,3720,-24,-466,-73
13976,15452,1124,-53,379,175
14948,8132,7200,228,8,-313
15408,9740,1224,-76,223,434
10744,5360,-1440,-141,-576,-895
14728,11680,9500,439,235,145
15904,7844,3156,-360,84,-77
13948,6448,5944,-54,-181,-72
12004,13356,-6408,-23,1019,411
12704,7336,-88,227,-363,48
16928,10380,4512,-180,380,324
12424,9272,1552,-192,-127,-617
13840,4904,1188,565,188,-257
15908,9664,1888,-252,336,48
7260,2456,-1224,7,-793,-439
12180,8696,2156,376,71,567
15696,8284,624,-417,-156,-79
12256,4272,4276,-22,-331,274
14756,14888,3488,-68,538,525
13716,8708,3784,333,141,-29
16888,11760,4424,-238,383,394
12396,7984,-204,-27,-283,-587
15336,10052,10708,449,142,-57
15912,7628,1892,-390,-104,-618
12408,4040,6740,79,-257,-189
13816,11604,488,-117,573,43
14112,5608,3276,126,-105,30
15216,9940,1504,-264,350,696
12088,7636,1052,-258,-147,-421
14116,11020,2112,428,433,217
18676,11108,7644,-228,-400,-135
13612,5632,1968,220,-128,121
13096,10888,3120,-246,-75,-666
11784,5460,2004,406,-552,-194
13732,8840,1952,-244,341,601
12424,4716,5328,-78,-334,-242
12516,14456,-5176,-57,1026,261
14036,7608,3760,385,-78,123
16376,11572,-2032,-235,562,502
11460,6036,628,166,-656,-173
13476,12232,-36,97,616,-184
13488,5212,6016,286,-450,-525
15164,8616,3416,-345,391,463
12412,4520,6972,-143,-611,-272
13196,13224,724,-56,578,496
17464,7672,12560,388,-275,-296
16412,12044,-1640,-130,451,476
11248,2212,1888,93,-479,-800
15056,13676,6816,-166,-44,-139
12444,6588,3952,247,-342,12
16980,10740,-200,-372,460,495
14288,6904,3588,137,-213,371
12156,11352,-364,-180,308,-273
17396,9420,11180,443,72,-104
13192,7080,996,-257,-396,-460
11948,5864,732,91,87,525
12244,7880,2468,-305,-437,-106
15716,12516,3164,350,496,830
15072,9196,2996,-111,-233,-480
16060,8348,1764,78,218,389
11056,7604,780,-131,-101,-867
14468,11468,5764,186,171,521
16552,9596,7560,-203,-547,-44
16304,11656,2252,-207,217,427
11628,8224,928,-91,-339,-708
15252,11540,7596,394,817,-110
11188,5480,2404,181,-376,-298
15600,7868,3892,-239,330,546
13268,6240,5244,-155,-407,-176
16104,12968,5240,248,702,178
14304,6164,4920,73,-218,-386
16128,7672,3060,-53,354,49
9084,5788,-2872,-95,-430,-708
14744,10816,8508,242,392,522
16624,8848,3000,-330,-21,3
14360,6692,3916,135,-30,676
13688,12036,1628,-193,303,-276
14648,7744,3332,498,-231,-181
15364,9788,1404,-217,237,119
8736,3244,3468,-66,-795,-561
10172,7692,-3412,395,654,552
14016,5712,4052,-263,-505,-136
16156,8072,5764,69,-10,733
12304,13152,-1640,-143,183,139
14836,7652,4492,435,323,-223
16096,11264,-816,-209,553,277
11536,2996,5640,85,-678,-598
11840,8376,-840,443,842,199
12336,6724,364,-58,-570,-156
14508,6856,4440,-16,201,483
11776,11996,-1808,-356,-112,78
14304,6628,3212,363,-214,278
16420,12100,-2572,-314,597,380
12856,6228,3560,70,-436,-418
14752,11216,2952,282,774,19
11636,5708,920,-72,-559,-715
13828,5848,7124,25,-202,433
11972,10740,5996,-305,-364,-28
15496,8416,7676,401,-20,255
16828,12752,-448,-343,208,689
12288,6536,3212,-75,-571,-376
15128,12468,2132,213,709,-45
13912,4660,5468,26,-625,-441
13516,5592,2316,103,68,187
8328,7048,-3032,-235,-368,-213
13108,5416,5824,334,-48,50
17336,11536,3396,-426,320,642
11596,5932,1160,-42,-625,0
14988,13104,-688,194,743,112
14104,8556,944,-113,77,-338
15768,7448,5360,173,94,235
13988,11484,5152,-159,-143,-355
12888,4600,2948,404,-247,-486
13800,10632,252,-216,180,389
10536,6080,5796,-142,-831,-160
15988,10892,6468,214,471,570
16740,9732,772,-302,-3,134
15476,7564,3844,184,119,608
13368,12772,1084,-245,314,-288
15092,8344,3676,473,-113,-330
16028,10340,2056,-129,205,385
10712,5720,-244,-112,-849,-809
14860,12104,9936,389,150,-23
15664,8428,3208,-361,-227,-135
13700,4204,6536,84,43,-233
12744,12280,-3516,-174,918,68
14252,8012,3176,154,-105,85
16340,9588,5276,-145,265,686
13220,8392,3048,-201,147,-573
17952,11916,11140,438,83,-107
19388,11784,5956,-248,278,74
12376,2448,4644,95,-465,-740
15432,11416,7120,28,408,-223
11784,5396,1880,248,-159,-245
13680,6780,4580,-139,244,571
12088,8972,5304,-249,139,-225
15160,9500,6188,443,135,464
16604,11540,-1984,-400,154,518
12956,6212,4508,14,-212,-478
15500,12372,2352,96,671,-82
13956,5692,2996,52,-565,-510
14224,5104,3440,77,-8,73
10736,9988,468,-228,-312,-424
12968,8652,2788,373,-91,98
17608,10400,6756,-516,201,485
13320,5764,8696,-10,-525,12
17428,13896,5492,140,616,120
14992,8200,2924,-111,-222,-472
15976,7372,4940,102,-26,294
12528,9756,2568,-179,196,-828
11432,5464,2872,490,-445,-55
15232,9300,5008,-315,179,613
11612,5200,2452,48,-291,27
14312,14740,1736,18,642,421
14572,5896,6112,393,87,-213
17196,11340,5540,-186,255,259
9448,3960,2392,-20,-672,-830
13140,9876,4392,-22,269,162
14716,6076,7380,82,-90,-94
16148,10200,3196,-273,376,731
12156,5992,1616,-55,-706,-508
15160,11864,1560,167,533,-74
14084,4756,6848,274,-94,-586
15520,9076,4980,-281,162,466
12104,5416,2328,-222,-382,-310
16732,14628,4528,163,585,482
16820,10356,8616,38,-10,-338
15784,8336,548,-17,256,264
12264,8380,9264,-129,-148,-946
14436,9216,7360,470,537,385
15812,8424,1324,-374,-136,-131
15364,8232,4664,81,-18,636
13580,11860,1776,-234,80,-400
13912,9636,1684,476,-203,-59
16492,7984,2208,-345,-280,-512
12100,5520,2860,44,-720,243
12024,10268,4584,-355,-282,-128
13668,10936,2952,358,78,352
17068,11484,408,-369,319,253
13008,6620,4096,111,-193,-114
13292,11216,1400,125,458,-109
12992,5144,3388,380,-252,-448
14924,9524,1344,-228,166,543
10884,2884,4812,-57,-357,-223
14012,15132,1792,-75,449,383
13352,6672,796,313,20,-99
15868,11240,-692,-208,419,420
12028,4792,5108,29,-972,-630
13820,10956,7452,313,580,118
12660,5168,6480,47,-614,-53
16236,9916,3420,-118,367,815
11836,9288,2392,-226,-124,-54
14644,13248,1852,351,336,166
17144,9576,8084,-327,-452,-239
12712,3812,4040,148,-244,-189
9892,9220,-468,-181,-40,-318
13784,5728,6316,354,-440,110
17364,10704,2488,-371,176,736
13308,6400,8404,54,-567,-119
14184,15860,-924,-51,527,-30
16416,8220,8072,424,-283,-384
14584,10316,1384,-204,315,267
7048,880,-596,-8,-547,-372
12792,12992,-2548,-269,354,220
15332,7884,8740,200,-218,137
17440,11968,4020,-206,517,416
12268,5860,5432,103,-814,-406
13880,10688,6668,273,457,-70
11524,4972,5200,16,-539,-148
16128,9884,2276,-118,451,796
12076,8048,1468,-189,-175,-363
14412,11664,3004,394,791,273
13752,7136,3280,-41,-115,-351
12192,6120,432,92,-12,164
9940,6764,2780,-224,26,-214
13632,9168,3664,451,543,427
16352,10568,3644,-337,-72,-87
14476,7632,1112,204,321,221
13508,9488,5648,-168,160,-999
15612,9876,11892,390,-309,152
14928,6824,2104,-464,-145,-63
14560,6568,4440,122,6,727
11152,9276,-2324,-296,-141,-578
13588,10856,-872,556,309,85
12784,7064,3008,-348,-438,-534
12264,5732,2084,153,-175,434
12188,9804,4488,-334,-363,90
14032,10760,3344,528,233,513
16112,11204,-916,-336,122,-147
13820,5436,2196,255,-143,115
9952,9408,-1700,-250,179,-578
13120,8356,4324,433,31,124
16000,9468,-1132,-399,295,270
14272,7292,3760,90,-112,187
13248,12104,864,-68,425,-136
13272,5752,2332,451,-211,-463
15292,9212,3888,-239,104,286
7236,1100,-1292,-49,-729,-178
15860,13132,6464,57,732,331
14924,10064,4264,-64,-507,77
16268,9680,3360,-122,431,261
12228,9688,-2028,-165,56,-603
16104,9460,8100,494,-59,-238
16480,9284,3532,-283,352,-108
10800,4028,7644,98,-673,-383
10072,7600,-3276,285,707,329
13672,7056,3528,-303,-382,-190
13292,6528,3108,22,-148,525
11628,12204,-5340,-232,29,356
12508,6752,644,335,61,34
17284,11804,4160,-224,387,394
13864,9752,4616,-249,-402,-681
17388,9928,11476,474,193,-90
16004,8292,600,-288,245,-325
11720,3292,6604,89,-617,-499
12004,10888,-240,32,318,144
13120,6368,7588,-22,-395,-116
15604,8868,5400,-149,78,699
12560,10044,3288,-201,-199,190
16900,9728,9124,562,257,142
18228,12832,1900,-361,463,310
13128,4376,7216,190,-369,-355
15836,10824,6124,96,342,-142
12044,5036,4416,-8,-517,-542
13404,6156,3688,6,-88,673
10800,8752,1980,-244,174,-138
14272,9352,4516,382,169,399
15936,10464,-2588,-381,296,318
13668,6288,7264,9,-318,-480
12032,12072,-3664,121,360,62
14800,5472,6880,296,-210,-630
14928,8144,2592,-96,161,185
10804,7044,3316,-301,-419,-356
13932,8020,6668,331,491,480
17124,9932,4272,-413,-296,106
14652,6360,7240,45,-55,54
13680,11176,2240,-147,-46,-271
15604,6828,10972,399,-367,-404
14792,9444,-284,-257,270,404
10896,3616,6316,-131,-337,-263
14424,14364,2348,-86,418,343
13608,7660,5400,167,-49,-172
15872,11084,3348,-188,119,349
10608,4972,-1976,-34,-426,-839
12716,10276,4636,489,187,200
13096,6120,1324,-228,-368,-96
15452,8240,4796,-5,122,427
12944,12356,2756,-136,179,338
16080,8060,6796,404,301,-144
17996,12164,1236,-285,662,199
11100,4164,2412,205,-736,-144
12976,10836,-620,50,221,-249
13028,6540,7424,89,-475,-169
15360,8216,2828,-102,359,531
10252,9028,-2392,-298,182,-43
13880,9520,4836,502,143,557
16864,11140,-908,-376,217,57
13372,4948,6256,272,-379,119
12116,11960,-2132,17,485,-220
13220,7104,5904,317,-471,-454
15332,9912,5448,-330,223,438
10168,4604,-368,-227,-198,-429
15596,11168,5436,310,688,675
14352,8320,224,-155,-294,-257
17416,9720,4404,45,244,308
9640,7768,-7688,-89,392,-947
14848,9060,10340,513,397,-333
14716,9316,588,-309,380,240
11952,4224,4152,16,-51,-217
14492,12584,2176,-69,288,482
16008,9664,7556,-184,-565,-342
14020,7716,5468,181,-68,43
12520,12404,-2300,76,427,-84
13520,6540,5528,22,-470,-621
12456,5600,2288,102,-33,389
12932,11060,1592,-282,297,-21
14320,5448,5936,299,16,176
16520,9832,3832,-146,383,581
13972,10712,3616,-201,196,-604
14684,7756,2088,502,105,-338
15480,8732,4192,-279,232,-62
10844,6924,7020,-166,-1088,-294
14204,8396,8028,375,143,359
16336,9340,-616,-380,447,557
11732,6600,3072,57,-528,-63
16640,13436,3960,306,1050,133
17376,10052,7328,-268,-406,-232
12484,3732,5232,141,-227,-564
12404,11116,-2048,11,436,-128
12232,5880,3532,-82,-648,0
14992,7412,4220,78,140,616
15984,14932,5460,-242,-35,358
13904,6176,4416,305,-121,-186
16992,10400,4264,-221,31,332
14608,9796,6912,-174,-27,-918
15316,7920,9108,418,-251,-316
13420,9264,-1068,-183,150,490
10904,6296,1976,-306,-296,-294
13520,9316,3616,375,304,430
18252,11556,4108,-347,394,714
12260,7092,760,-89,-368,-532
16720,12400,10964,513,314,260
17044,10324,720,-284,261,-166
11900,3548,7408,59,-466,-752
10480,8848,-1524,457,569,382
13632,5820,6044,-257,-337,-117
10840,2772,1512,73,267,-213
11504,12932,-6692,-249,291,195
14472,9736,4608,-212,-561,142
13752,7196,2548,184,249,537
12300,12776,-2004,-70,777,0
12796,7468,2508,284,3,-288
16836,8316,1864,115,123,424
11460,9364,-2848,-129,375,-814
13332,6452,7020,394,-228,-482
15272,10656,5480,-262,22,429
10704,2756,2472,-181,-409,-386
14240,9064,6228,377,377,491
17752,9604,5316,-341,351,419
12088,5916,3768,-57,-653,-190
16752,13304,3700,31,738,-113
16204,6896,8952,30,-556,-392
13624,5308,4648,192,16,10
9316,10608,-5728,-153,17,-323
12308,4588,3528,200,-340,-216
15012,8584,1188,-100,458,679
12032,10012,2892,-189,-293,344
15172,6952,2720,481,310,-20
17896,13016,4460,-165,618,480
12124,6368,5644,-33,-323,-703
12376,7996,-532,501,323,-258
16092,9228,1380,-308,75,-88
9452,1012,-668,78,-157,-141
11920,12500,-6128,-220,314,268
13680,7584,6248,-42,-475,129
15992,7580,5700,-93,89,253
13824,12676,1000,-179,257,-395
13088,4156,1124,573,-123,-260
15600,10444,3124,-269,118,-26
8576,5216,-4172,-106,-465,-673
11048,6792,164,419,42,270
16460,8416,1216,-353,545,231
11180,4236,644,-73,-481,-113
15352,13708,856,23,641,478
14864,9100,4872,-192,-403,-334
14736,7676,3312,100,351,56
15088,12840,6416,91,533,-27
15044,6244,7160,310,-411,-357
14880,10096,4408,-177,177,-35
8824,5824,-1468,-174,-294,-406
13068,4648,6880,487,-43,256
17552,10760,4956,-408,432,657
12464,7000,3304,-143,-717,-21
17404,14164,5044,320,988,276
14084,8668,-136,-205,-44,-257
14072,5492,1940,247,-330,251
12696,10752,1756,-106,236,-377
14976,6020,8096,334,-287,-548
14948,10036,4736,-314,136,349
11012,6296,3488,-271,-525,-315
14588,10476,4312,342,420,477
17188,11520,1280,-365,242,358
12700,5260,6040,-83,-494,-460
14008,13496,184,21,656,-103
15936,6988,9352,30,-618,-477
14324,6424,3436,85,85,44
10980,11340,2900,-233,-474,-76
12656,5188,3712,289,-211,71
17800,13332,3252,-374,539,745
12128,5644,2536,-114,-698,-198
14960,11748,2556,325,1001,42
16180,7596,8960,-12,-113,-305
13296,4888,2696,145,-3,-103
10864,10388,2336,-134,170,-297
13996,7280,6228,276,-139,-138
16296,10020,4788,-411,445,569
12852,6116,4312,-175,-144,-167
14564,11992,1240,379,891,392
14544,6580,5276,-67,-96,-211
13668,4652,3464,172,-77,1
9916,9436,1160,-181,-251,-296
13572,6376,4964,306,-184,95
17520,11292,4400,-352,574,657
12644,6100,3856,-112,-619,-340
14508,11696,1976,363,821,74
15304,6716,7664,5,-395,-364
12728,5916,1824,128,17,176
10996,9776,4372,-266,-602,14
15072,7772,5548,280,-49,144
17324,12660,-324,-295,602,736
13536,7532,4648,-126,-551,-494
15600,11476,4048,439,1102,123
12220,6116,2000,-91,-351,-729
12820,5776,3136,100,-113,405
12188,8976,5548,-366,-336,-7
15572,10156,6776,387,-90,249
18872,12040,5612,-367,470,248
12652,6712,744,160,-343,-326
15944,11724,6456,62,193,-234
13248,6928,5400,-17,-884,-295
14476,7264,4988,-48,-11,579
11592,12032,-1472,-307,-363,267
14860,7436,828,437,296,-4
17120,12276,1400,-207,495,436
9856,2236,1316,18,-842,-519
14336,10856,7092,401,274,354
13528,5888,6412,-250,-397,-132
14708,6216,9156,-123,-383,261
14560,14240,3492,-68,891,353
15236,8372,8624,156,-149,-239
17188,10472,4972,-61,284,295
12280,8316,76,-82,337,-797
11888,6396,3136,448,-294,-208
13948,9092,-16,-289,391,569
12628,5884,3616,-169,-313,-313
16248,12584,5352,390,413,681
16356,10852,-1948,-378,396,-6
12892,6624,4192,99,-422,-303
13460,11884,-700,89,537,-208
14108,4004,8596,346,-472,-365
13972,7084,1140,-211,220,488
11040,4860,700,-295,-215,-275
14872,10464,6300,433,317,620
17892,10940,6868,-369,100,-55
12908,6284,4604,182,-272,-21
11920,10532,248,92,324,-34
14588,6372,5652,223,-198,-744
15136,7892,5056,12,149,447
9660,6252,1628,-200,15,-359
13228,5508,5528,335,183,277
18776,11584,6688,-384,208,552
12792,6076,4424,51,-473,-197
14860,13300,-1220,230,872,75
12720,7316,-1820,-8,-244,-322
13600,4636,3144,118,-42,-107
11288,10684,-2272,-154,23,-371
13316,5816,5760,401,-298,-96
15424,8372,2384,-377,380,408
11420,6296,52,-366,-275,-138
15112,9536,6092,460,33,548
19808,11948,7568,-253,573,650
14264,8320,4716,-173,-134,-700
12148,9484,-1220,465,422,133
16248,9260,-2184,-218,228,27
11056,3800,1608,163,-514,-518
12604,9516,616,455,867,48
16412,8052,5588,-291,-518,-436
12520,4544,5772,130,-188,-285
13132,10228,4844,23,473,161
11436,5268,1820,-183,-688,-99
13940,6712,5352,-56,-150,233
15456,14692,4648,-114,1092,102
13096,6872,4024,-74,-466,150
14128,7580,3752,190,219,573
12420,14516,-3808,7,894,320
16072,10968,7540,-80,-586,-264
13868,7460,532,104,282,67
14820,14580,4876,-16,479,66
14768,6976,5788,-13,-756,-390
13348,5304,6332,248,-125,138
12912,11528,624,23,533,-318
15528,6636,9940,43,-624,-645
12072,6152,1336,186,-81,120
14456,13356,5296,-177,-134,-115
13488,5592,5344,198,-169,-168
13488,6012,4040,-62,43,513
12468,11760,4300,-301,263,-8
12400,5060,-164,375,25,129
16284,10776,1644,-98,422,734
11920,9780,204,-292,-14,-161
13736,7172,136,433,235,-252
17596,12464,4348,-117,386,464
10988,6004,-20,-152,-249,-666
14372,5516,6356,486,100,-494
16044,9616,3808,-201,422,90
11664,8176,8496,-140,-973,-474
12132,8176,556,390,65,251
16860,9552,5448,-354,290,420
11540,5116,4000,-304,-687,-222
14908,12152,980,345,633,525
18772,11724,5868,-375,226,344
11992,5492,3940,-24,-689,-276
14516,13164,2636,412,981,264
17996,10004,9804,-334,-5,-199
12604,4520,5448,119,-797,-459
10764,8584,-5128,448,450,269
15612,7848,256,-333,170,-373
10524,3828,8624,63,-545,-284
12596,7776,1188,422,336,286
16540,8860,-444,-397,461,616
12812,6620,4260,-266,-285,-336
15228,10152,6720,461,86,655
16716,12308,-2484,-328,626,576
12424,8840,3192,-292,-203,-818
17692,9588,12268,418,311,-305
15276,10756,2672,-15,434,444
9800,5508,-1924,-229,-331,-842
15320,8088,9412,333,-444,-477
15592,8696,1904,-235,-115,157
7700,6628,-3236,-197,-415,-151
12316,3716,5036,320,-228,-190
15724,8764,1840,-173,588,617
13036,12064,3744,-321,-267,255
17540,7744,11864,276,218,123
15780,8860,3956,-42,555,572
12692,10424,-96,-270,393,-259
13324,7408,492,279,18,-93
16484,8756,3420,8,100,329
11972,9408,-2916,-103,97,-475
10896,4092,364,261,-741,-510
14880,7896,5064,-3,122,346
9920,9340,2044,-210,-61,-210
12828,3744,6332,246,-303,-123
16556,9484,3312,-81,495,776
12160,11548,3900,-319,-49,158
15948,8808,7556,298,-272,107
16960,9636,4756,-59,409,471
13672,13856,360,-313,247,-410
14384,5060,5516,491,-36,-291
16264,8116,1676,-42,73,191
11096,8396,-1172,-182,-152,-801
11712,5240,3444,419,-461,-237
16364,9192,6808,-340,323,298
9200,6356,520,-228,-13,-68
14164,9028,5708,426,206,650
18760,11744,5056,-273,204,479
12768,7316,3088,-67,-446,-560
13828,12368,1124,485,866,264
11952,6216,-952,-285,-607,-472
10236,4368,-1080,107,-228,-501
14164,11268,5628,8,692,150
12628,7096,1112,-160,-342,-153
14152,7080,5640,102,107,597
13932,13824,1536,-15,818,274
14164,8216,3828,157,59,-351
15384,5940,1860,269,82,352
14748,13232,4740,-171,5,-326
13580,5004,5604,300,-123,-348
13324,6840,1984,-81,271,355
12904,10104,5184,-201,305,163
13000,5740,-392,366,184,196
16336,10652,3388,-51,220,397
11812,9140,-1696,-78,281,-422
13768,6020,6564,445,-202,-602
13772,8208,728,-48,13,441
11592,8132,5564,-164,81,-14
15236,8784,3048,256,69,54
17832,12352,4412,-295,597,407
12408,8328,684,-168,77,-696
17184,9524,11132,596,205,-305
15088,9360,2580,-329,194,-34
10312,4248,3880,-158,-554,-472
13712,8988,8120,313,-25,333
16040,10156,3556,-459,307,570
13840,7180,6624,-258,-696,-334
15180,10516,6916,320,285,428
17404,9784,3684,-287,312,-117
10712,4000,780,130,-392,-600
14764,10240,9072,517,1141,129
12552,6560,368,-278,-492,-307
11308,3524,4256,73,-218,273
14484,12912,4316,-213,661,278
13840,7008,9768,266,-150,164
16928,12028,2920,-146,298,440
12996,10600,-528,-184,27,-575
13116,9224,1724,400,-289,-407
15612,9336,-1336,-302,387,-179
10372,2768,3292,148,-565,-250
11848,12588,-6168,-116,857,78
14572,7296,4700,179,-69,156
15688,10792,2744,-172,468,686
14004,9292,5800,-172,-101,-724
13112,10056,-1952,499,826,374
14188,6640,8136,161,-377,-526
13884,7396,2112,-51,238,606
10692,3184,132,-207,-371,-527
14308,14804,1812,-157,252,393
15180,5660,8720,334,-200,-342
16440,9392,-2756,-221,300,147
14008,5092,7228,26,-290,-401
11020,6568,3928,-187,-277,-49
15240,12280,2168,117,632,592
13748,7628,4380,281,125,-75
18792,10972,4024,-282,400,197
13336,3056,4820,10,-256,-419
10204,5992,2556,-215,-475,-208
13780,11412,-432,12,810,308
16692,9312,9972,358,-168,-254
16512,10436,-2600,-334,153,-252
14720,8416,3908,-1,-15,-61
9580,2196,4152,-110,-687,-376
12544,14304,-1260,-322,65,221
15000,11088,6508,383,234,77
13212,7284,796,98,-351,-430
15540,9908,2948,-265,236,104
11232,4000,2996,30,-229,-135
13136,10984,7888,-383,-284,107
14044,11484,1212,304,621,493
14684,7044,6204,289,-159,-333
15924,9952,1092,-267,418,-76
12580,4488,7052,59,-378,186
10192,5628,-2984,-371,-566,-72
13852,12600,-3208,55,897,222
13852,6492,2140,490,-254,-279
15068,7392,-912,-363,236,-492
12936,5192,5960,34,3,260
10900,3840,808,-130,65,-395
13280,14492,-2012,-70,348,270
14264,8252,-584,498,174,-275
12680,7332,600,-399,-432,-645
13740,7188,5140,-113,-100,579
10292,3096,2064,-284,-513,-509
12408,14312,-2764,-24,863,321
13492,6680,-616,521,75,-246
12712,6536,2016,-128,-202,-688
13056,7464,112,-288,252,402
12032,6288,3444,-53,-471,-118
11792,11688,-2136,-273,304,-340
15404,12796,5528,463,206,91
11440,5656,-1028,292,63,-563
16396,10728,1636,-400,250,409
13636,6612,3152,74,9,516
11888,9576,-1024,-430,-241,-946
15188,13532,3400,87,511,-2
12712,6936,3556,374,-329,-384
15704,7736,3872,-409,-60,-106
15616,10588,4516,-179,-2,824
12252,6652,2652,-182,-426,-457
12268,12636,-3676,26,401,13
12908,5996,1156,441,-61,-466
13880,6460,6896,-240,-256,-265
14840,9584,1300,-196,519,779
12040,5832,2596,39,-426,-110
13904,13204,1936,-64,571,-27
14508,6212,4432,446,-170,-361
12116,6628,1264,-188,-427,-403
13540,5920,6712,-96,11,655
12820,6052,5712,-274,-750,-232
16356,13608,7800,-166,127,376
16156,10144,4344,372,-17,-381
19348,11592,4756,-335,175,67
13468,5508,3332,104,-304,-273
11812,9468,4180,-296,-360,-766
11072,8456,-5016,310,93,562
13588,5884,6256,108,80,-25
18696,12548,4388,-297,741,730
10852,5408,700,62,-187,29
12208,10148,-1324,-203,276,-404
15112,10060,8004,519,413,126
14284,7068,4760,-27,-763,-629
15000,11500,3308,-301,158,156
9300,3032,5600,65,-851,-142
10128,10892,-2604,-200,342,50
14584,9792,6124,401,295,473
15812,10464,7092,-228,-628,-47
16592,10640,3832,-243,219,448
11864,5112,3224,33,-663,-269
11872,12944,-5052,71,535,52
13908,8032,7212,486,125,-516
16476,9148,4652,-343,-474,-269
11784,5364,1104,-96,-143,625
12480,5428,5984,-191,1,-391
13104,14848,-2224,-102,154,402
16404,9916,4736,377,-40,-296
17284,11352,-2024,-304,80,-90
15804,5644,6120,148,302,-38
9256,5412,-1968,-184,-723,-626
11812,11608,-4024,-154,390,114
15500,7012,6492,281,58,-68
17956,10872,6272,-453,-190,105
16368,9140,4212,-106,163,444
11972,7876,3372,-151,-240,-778
15920,11728,3696,91,483,-125
15616,5704,8796,360,-232,-639
14992,8108,372,-286,183,109
12840,4500,7964,89,-36,362
11960,7944,3116,-378,-275,-243
14796,10764,2612,202,598,490
13844,5860,2276,306,-28,-25
16264,12176,-2060,-260,685,260
13416,5288,5248,207,-395,-1
11100,9096,-2204,-169,252,-797
11580,8100,-156,404,44,-150
12084,6040,-8,-168,-386,-195
14104,8136,-544,-152,364,639
11052,5452,636,-215,-183,-372
14684,12900,2648,-118,314,390
12488,5764,580,400,59,-59
18204,11800,1772,-382,381,181
13168,5968,6164,268,-311,148
14188,9516,6296,-96,261,-839
14044,11276,6748,326,187,189
13248,6668,7392,141,-451,-266
14972,10348,2356,-341,286,470
11676,3908,7472,-172,-632,-236
13428,13464,-344,-300,216,263
15452,7936,4808,402,-58,219
18140,10192,7552,-335,281,36
14468,7972,3620,144,258,101
12436,8896,68,-46,273,-333
15968,9664,8660,360,-119,-368
15108,8724,5148,-376,-148,-574
12852,5616,8216,99,-661,200
7608,6280,-4788,-267,-509,-114
12556,7948,2760,456,268,305
15716,8480,-2292,-454,304,125
13900,7304,4548,37,-398,495
13008,12524,-1692,-111,474,178
15776,7568,7644,477,132,-118
19360,11572,5784,-322,290,163
12652,4996,4884,162,-465,-78
12356,11024,-1552,-31,204,-277
11436,5428,400,369,-390,-526
15960,10216,3200,-271,256,235
9624,1848,5460,69,-122,-328
14988,13372,4948,-310,273,60
14500,5172,4152,309,48,-33
17172,12372,-336,-293,550,668
13024,7392,3272,-134,-605,-538
14108,11180,-1720,387,865,268
12584,6640,-240,-19,-267,-459
15400,7924,5108,12,25,37
10332,9300,-352,-183,-115,-361
12500,7868,1124,285,4,318
17096,8144,4780,-518,-118,4
14360,7316,3620,121,-219,543
12340,12316,-2280,-219,522,-214
14680,7868,836,451,409,-202
17072,10828,1684,-216,414,239
12716,2600,8308,159,-430,-549
10568,10688,-7624,-10,660,-318
11528,5688,2552,265,-130,-319
16516,8272,6284,-238,344,425
10132,6288,-1452,-171,-69,-341
14988,10480,3224,282,720,646
15768,8944,2344,-272,-231,10
16888,9236,3288,19,129,210
12824,11148,-1156,-186,140,-493
13232,9760,-504,491,-104,-237
15908,8276,76,-278,155,-361
13176,5976,7244,69,-244,-179
10204,11044,1128,-216,80,-244
13140,8504,2992,413,-172,119
17164,9620,1588,-471,490,385
11800,5148,3260,0,-263,219
11748,11860,-2780,-179,399,41
16068,9656,3060,470,405,-189
16420,9992,-1664,-296,100,109
12268,3968,1984,139,-139,-565
10932,10464,-3472,-148,158,-400
12480,5372,4336,447,-397,-372
15600,9468,5528,-267,313,585
11252,3844,6244,-96,-561,-177
12312,13344,-4440,-263,250,270
14856,8760,5844,212,-66,148
15540,10292,2500,-293,508,482
13436,8260,5856,-181,-1,-673
15228,13016,3756,421,863,221
16580,7812,9032,13,-460,-358
15508,6508,3524,15,158,10
9024,5332,-3688,-319,-363,-935
13600,9928,4612,503,286,254
14080,6244,3868,-339,-321,-120
13412,6812,2200,30,182,402
10704,9620,-2440,-238,-261,288
14408,10772,4464,466,253,440
17064,10172,6468,-398,-26,-23
13720,7932,2308,231,-41,205
9540,6412,-5068,-207,-66,-381
10912,4664,-2508,510,235,-402
14740,7192,284,-299,222,88
12276,3000,4788,22,-22,-142
12944,11396,5376,-126,472,307
14784,7092,3784,447,43,162
16952,10944,1824,-344,344,113
13236,5780,6480,222,-373,42
13500,11484,2780,-202,-115,-562
11412,6332,2748,542,-158,-67
14988,7292,-304,-399,136,50
14456,7228,2048,152,82,643
12904,11916,2376,-307,-246,-105
13224,10668,-1716,455,398,16
17368,9316,7284,-217,-422,-388
14352,6964,5372,41,144,6
8364,6360,-2656,-175,-141,-383
15752,12192,2408,288,653,473
15600,7600,4220,-226,-446,-126
17052,10720,3932,-58,450,277
11236,6476,-1196,-45,-318,-722
10628,8040,-3256,355,201,254
12408,5948,5436,-45,-669,-143
15332,9464,1236,-128,226,737
12384,7120,3708,-269,-379,-211
14504,9948,5800,379,402,291
12800,6876,-868,-33,-34,-176
13072,4536,1448,62,16,-44
9312,6824,-892,-197,-331,-450
16100,11356,6968,403,829,353
14448,8248,3528,-242,-200,-11
16844,10080,4856,-58,272,429
13900,10216,4216,-161,147,-663
11936,9576,-4256,611,540,45
11940,6668,300,-171,-256,-473
12428,5928,3548,0,-207,583
11004,6636,1004,-311,-368,-227
15304,11436,5272,311,681,654
15516,9756,5540,-155,-402,-151
16460,9412,3956,-95,423,249
11268,6816,-668,-157,-376,-730
14824,10988,6776,401,364,192
11520,5100,3384,-32,-813,-381
14004,7236,5764,-107,187,602
11788,5352,3012,-249,-247,-229
15536,10840,4072,315,663,655
16072,10596,7048,4,-403,-271
16776,11332,2832,-162,131,397
11952,6796,4472,-60,-699,-709
12560,10916,2528,-40,46,-99
12780,4836,3312,203,-435,-139
17068,11864,876,-400,584,684
13624,6368,8892,-42,-749,-98
11588,12376,-3564,40,923,7
15408,8524,6268,616,89,-288
15604,8064,2692,-338,181,-429
12484,4564,6936,82,-180,282
10152,9836,-3248,-269,21,32
14596,11640,1588,424,350,488
14580,9052,4180,-42,-90,-284
16256,8384,3016,-35,221,225
10740,6768,6788,-155,-1098,-464
11252,7552,-1556,-67,328,219
13792,6064,1536,143,-123,139
17524,12432,2396,-231,655,646
13864,7276,4336,66,-263,-426
11988,11508,-1028,-34,260,-263
14520,9740,9224,580,67,-106
16568,8364,4716,-369,-129,4
15732,9496,5580,-76,-214,835
13396,7820,3988,-302,-201,-917
15160,12324,2824,323,801,37
15156,6688,7076,197,-398,-667
17264,9864,6264,-283,370,511
13172,5776,5584,-82,-127,64
11496,10276,-2432,-346,-119,-260
14648,10744,3472,471,347,158
13372,6260,4076,-64,-685,-679
15316,9964,4432,-285,163,342
10964,3932,4808,-192,-592,-245
12176,12656,-2060,-146,165,278
13436,8116,-3316,510,547,-193
16864,8176,3484,-294,202,-258
12200,5312,4720,37,-546,-133
11368,9580,3584,-318,-28,-146
14352,7204,4464,374,16,306
17144,11456,-1016,-322,212,321
13284,6364,3836,83,-482,-302
12636,11160,-40,-21,511,-373
12904,6872,4440,365,-260,-311
18232,11264,5048,-442,510,523
12784,6372,5668,-27,-784,-61
12028,12608,-2136,-69,641,106
13768,5600,3744,534,-44,-333
14232,9712,-948,-260,191,156
9316,1076,632,-15,-623,-148
13352,12760,408,-131,662,335
17336,9500,10272,365,-56,-142
17420,11856,-224,-244,283,212
11424,2620,1944,59,-353,-850
14576,13124,5640,-128,6,-19
14844,7444,5456,265,-15,50
15952,10164,-2400,-355,281,377
12736,7264,5080,89,-263,-106
11988,10900,-1112,-171,-121,-324
11508,6316,3468,517,-188,-165
15164,7456,1572,-414,324,81
14792,6900,4176,99,-119,509
13380,11936,1780,-329,-15,-277
13532,11036,-576,394,-151,-190
16296,8228,5900,-210,-544,-467
12852,6032,4964,86,-154,610
11456,7424,3380,-324,-344,-250
16124,12504,4756,306,684,655
14908,9284,4808,-21,-230,-420
16752,9552,5616,-132,237,107
10520,6188,6236,-161,-1077,-580
10568,7420,-3056,26,363,212
13708,7308,1468,150,-69,156
17340,11516,5092,-283,614,486
12896,5500,4736,83,-444,-376
13496,11736,-684,65,502,-359
12980,6996,5212,413,-347,-339
15536,8844,3652,-327,309,558
12716,6060,5700,6,-456,69
12936,13728,-2024,-130,515,0
14196,5848,2400,537,182,-176
17992,9736,3476,-283,294,-252
12884,5048,7112,49,-301,-246
10864,11440,-2288,-320,190,-40
13912,10264,4556,426,107,423
16704,10300,4184,-327,41,49
16724,7712,6696,188,411,205
13344,9360,2888,-156,10,-836
13304,9404,6284,488,199,-97
14044,6392,1456,-251,-241,-86
15856,9188,6428,-52,79,650
10640,9552,-808,-170,-10,106
14792,12536,2560,427,297,268
13644,9116,-1340,-101,-127,-172
14224,6360,2892,161,95,183
12064,9340,4024,-335,-419,-983
13408,9208,6868,456,332,286
14984,6868,3892,-407,74,-150
14964,7200,5068,-41,-128,719
12228,9416,544,-270,0,-354
13236,10972,-1152,476,324,128
12980,5728,2720,-30,-174,-355
14632,6784,3640,-52,93,282
11212,6336,5528,-162,-532,-227
14208,10036,3072,181,748,480
15028,7120,11116,56,-290,-62
15844,11188,2312,-307,371,456
10704,5104,1200,0,-793,-393
15200,12272,2456,70,400,-122
12612,4524,3888,223,-377,-637
13836,10160,-908,-238,276,459
11120,3536,7356,-124,-394,-176
14324,14020,3300,-37,918,390
14484,5672,4692,394,-122,1
17588,11824,640,-233,787,452
11348,5828,992,231,-496,-178
13576,12452,352,105,590,-321
14264,4952,7176,217,-609,-498
14624,8460,1048,-217,411,563
11220,3828,5268,-200,-447,-252
14236,14452,2420,-98,596,412
13000,5588,2684,335,143,65
19084,11672,4432,-211,751,320
13172,3768,7496,146,-578,-285
12820,11544,-2068,-37,458,-352
13896,7076,8168,351,-432,-172
16020,9324,5656,-377,198,473
13816,7364,6076,-8,-45,75
11812,12432,-3156,-53,523,30
18272,10740,13436,471,103,-129
16104,9228,-2040,-264,255,-302
11860,5140,4856,-1,-484,-344
10108,10116,1112,-208,-43,-114
13996,9228,5448,425,211,267
17832,10588,5504,-404,-109,240
14504,6972,2864,149,154,420
13560,10500,3052,-191,-20,-496
14288,9964,1508,519,397,-233
12424,7416,3100,-287,-401,-510
12536,6060,2432,11,23,492
12544,8528,4592,-350,-53,-209
14904,10748,3880,390,466,714
17108,10276,9628,-158,41,-159
15980,9404,1752,-21,372,200
11000,5780,-1632,-127,-213,-691
15216,10160,8308,362,36,118
12752,6168,6620,-68,-488,-230
14752,6512,6660,-102,-3,629
11860,7016,1796,-254,-359,-79
14488,11304,620,384,711,575
15220,9552,4136,-149,-279,-411
16876,9484,4396,-20,209,295
10052,4464,3048,-111,-741,-817
13340,10424,4724,242,398,158
11604,4956,3120,254,-182,-131
17156,12108,2340,-380,437,697
12288,5812,5132,7,-525,3
10996,13376,-6620,48,820,40
13108,4592,1440,489,-110,-277
16132,9324,-928,-372,345,-183
9904,1984,1172,121,-283,-141
11316,11540,-800,-230,532,-83
14776,7064,8348,358,-41,353
16256,10052,2848,-370,40,162
14648,7604,6344,165,260,126
11824,8752,-1756,-76,365,-536
16112,8696,8568,441,75,-321
14112,8068,4220,-285,-450,-308
12300,5668,2900,41,-54,523
10208,7220,1952,-239,273,-234
13696,8476,5852,335,420,497
14184,7720,836,-357,-302,216
14656,6848,2836,57,193,294
13572,10656,1260,-188,242,-524
16032,7756,9160,436,-24,-311
17104,7732,4176,-335,110,-412
12804,4472,4808,16,-428,-259
10972,10584,2420,-132,125,-215
12912,4860,7172,415,-397,87
17196,8532,5264,-403,398,276
13640,6992,4960,101,-273,542
11644,9732,-1164,-269,-102,12
14140,11080,3100,544,542,56
12952,7272,-212,-91,-209,-166
15768,5820,6068,-3,43,-68
11464,6888,6796,-220,-909,-311
12068,8640,360,294,652,420
13792,7128,2552,87,-172,80
17240,11676,6656,-307,648,598
12748,6312,5252,53,-312,-440
15644,15328,5132,35,317,98
15452,7636,10328,402,-333,-599
14792,9496,4324,-286,56,295
9592,1920,392,-86,-670,-139
15644,13436,7064,-121,507,341
13444,8404,3016,185,-354,51
16100,10020,2960,-180,386,237
10328,5748,-2584,-104,-271,-618
14368,9508,5472,413,136,-356
15428,9096,2392,-402,-147,-242
12332,3156,5876,0,-91,-128
12472,12668,-2236,-279,332,173
14172,6364,3368,344,-113,143
16428,11944,-772,-186,581,362
12344,8108,2948,-25,-371,-553
10692,9156,-5836,398,195,179
12540,6944,2588,-218,-545,-224
12292,5004,4008,76,11,333
12628,11008,5044,-365,-243,91
15212,10612,6056,432,-27,205
19592,11520,6072,-381,440,199
12472,6240,2564,147,-499,-333
13036,11640,-2060,65,504,-190
12108,5996,876,257,-181,-480
15152,8068,4552,-149,291,449
10396,6368,396,-263,-62,-408
15052,11308,2352,330,524,722
16676,10680,4560,-333,-30,-74
14552,6896,2332,198,235,187
14028,12128,5332,-174,-99,-254
11744,5004,1684,388,-259,-450
13780,8988,2348,-262,158,507
9192,2164,2304,-188,-591,-339
14284,13532,2916,-131,455,345
14304,8148,4668,93,-542,-118
16732,11204,3380,-201,284,299
12888,10428,648,-212,-63,-713
12124,8640,-3024,510,289,-65
16720,7712,1612,-365,-120,-587
12948,4588,7764,141,-221,-142
13696,11024,5144,-170,-54,-101
14724,7280,5256,223,-119,-131
17444,10884,7644,-430,406,465
12324,6540,2632,-197,-141,-284
14860,11284,3284,395,400,469
16384,10040,576,-381,-126,-102
13396,6792,4088,139,-194,-118
13932,13748,452,56,378,55
13672,5028,3520,303,-543,-580
14960,8816,1788,-216,236,-17
9940,6300,2696,-146,-318,-483
14048,8452,8164,419,124,368
18416,10172,5856,-417,466,87
12700,6044,4028,-18,-114,87
12592,12536,-920,-97,586,434
13752,7568,1872,344,114,-43
16644,11728,452,-158,490,459
11608,7580,2408,-29,-346,-544
13548,8484,2388,410,-114,137
13016,7176,1316,-215,-274,-463
12424,5408,6212,123,-490,234
11292,10840,2872,-222,218,-94
13548,6236,2664,350,53,-3
17060,11384,944,-328,679,735
12880,7104,4548,-34,-640,-61
13816,12728,-1024,60,655,-69
15492,9812,4880,69,-206,-417
15856,8424,1884,8,197,301
11552,7348,-360,-188,-207,-1056
12988,9384,3920,464,249,-38
15288,8852,1596,-349,-236,-139
13792,5400,3724,-30,-283,25
13756,13612,-816,-279,204,164
14816,8260,2080,298,-235,101
16368,12084,-2148,-284,646,584
12964,7028,4228,-39,-578,-501
14448,11836,1388,303,650,20
14996,6896,6428,-3,-582,-588
14860,8168,3908,0,170,21
8928,5884,-808,-153,-279,-375
14324,9948,2392,301,829,454
14828,8060,156,-227,-34,-42
16600,9096,4696,-42,146,404
12828,10372,508,-194,-49,-669
15288,9520,10192,488,281,-41
14036,8056,3620,-170,-461,-319
14884,6648,7476,-49,-152,551
10144,8768,-1532,-277,-5,-117
14128,11068,844,416,365,589
12932,8296,-2152,-64,73,-370
16384,6860,3872,138,292,211
8700,5808,-3224,-177,-184,-834
14480,10072,4076,389,421,476
15508,8888,6184,-297,-517,-143
15932,9160,3924,12,398,715
12664,9624,1996,-221,4,-915
12872,10268,-2952,375,765,-36
13360,4920,5524,270,7,-618
15052,9472,5100,-302,217,485
11428,4356,2864,-208,-414,-276
13888,15152,456,-90,321,328
15340,7840,3284,486,-110,-260
17244,8848,3592,-273,345,-9
12136,4752,5800,70,-348,-268
11116,11420,-2380,-272,378,-40
14804,7272,4740,413,-55,285
17232,10324,3932,-403,141,50
13252,7276,3212,238,-134,178
10512,8060,-952,-151,207,-715
12836,8016,5360,542,-60,175
16264,8300,4016,-515,8,-13
14896,7076,4608,50,-15,734
13040,10476,976,-215,340,-669
12176,8596,-2764,535,302,158
13248,6152,6568,-66,-277,-483
13748,6576,4320,-37,237,606
11696,5184,2696,-208,-117,-267
15628,12212,5168,334,724,483
15376,9076,6720,133,100,-392
15748,9444,3884,-198,215,163
8272,3212,1408,33,-999,-241
13692,11560,2316,-233,467,5
15748,9044,4428,397,-152,282
17528,10244,4492,-385,292,9
14388,7188,3528,165,-73,346
9088,5880,-4008,-389,-431,-1070
12652,9200,2340,452,338,474
14524,6848,8580,-114,-244,-163
16680,11744,4532,-264,407,669
13224,6852,5296,-69,-505,-523
12112,12128,-3388,111,315,94
13068,5980,3744,410,-300,-342
16016,6672,4380,-335,340,217
13920,6964,4480,44,-31,487
12040,9380,-348,-194,46,-39
13684,10536,1428,372,258,214
13568,4652,5264,19,-586,-431
14644,9048,3500,-251,47,182
11404,3708,6016,-123,-532,-252
12204,13836,-4264,17,867,453
13832,7392,-216,370,-102,-131
17376,10616,1172,-280,180,-10
12724,4204,4008,73,-375,-306
8476,7508,-2568,-195,-378,-127
13704,8456,4828,353,558,502
13112,8108,1692,-170,-600,-85
17080,12472,3444,-186,335,343
11568,2048,5056,85,-512,-593
11288,10788,-2772,-125,108,-80
14256,8996,6220,400,330,307
15372,9316,2400,-348,-260,119
17200,10644,4784,-62,323,171
12340,6744,5668,-96,-658,-874
12552,10248,2452,42,193,156
14372,5112,7432,219,-124,-74
16672,12296,-712,-369,331,653
13148,6908,3280,142,-173,-198
10720,8892,-3808,-122,449,-682
10424,6896,-3072,421,8,219
13956,6200,4700,-334,-500,-225
15900,11500,2588,-174,242,599
12952,9140,3552,-82,-199,-652
13172,10664,-2776,122,535,-25
14504,5236,6400,238,-435,-526
14488,9884,3580,-220,362,541
12124,5188,6644,-163,-588,-189
15560,12624,5616,-130,122,468
14400,5460,5592,346,-62,-79
17036,12156,3244,-172,494,364
11380,3320,4496,141,-654,-519
14784,10968,5392,-78,226,-305
12976,4388,5564,203,-168,-354
14576,7568,2880,-197,358,419
11304,6816,4848,-275,-340,-364
15208,11048,5568,292,250,468
16196,9196,-24,-427,42,237
13460,6332,4288,146,-246,431
13292,14816,-1928,-63,727,101
15288,6292,8104,365,-32,-286
17256,12152,3800,-210,364,368
11676,7748,3580,-103,-415,-679
15328,9892,8692,414,-104,231
12560,6960,1432,-251,-459,-474
13604,4860,6668,41,-400,-291
10676,11208,2788,-163,34,-389
11744,6520,1960,396,-307,-159
14952,10416,4000,-294,401,530
11260,4028,4144,-201,-537,-411
14600,10300,3452,180,752,448
14028,7712,5816,-212,-440,2
16028,9264,3948,-20,338,646
12636,8700,2512,-302,102,-573
14820,11456,4716,472,398,19
17412,9184,7152,-281,150,-44
13116,5852,5716,227,-536,-64
12960,11908,2360,48,508,-176
13028,5568,1928,264,-65,-651
14392,7308,3436,-59,-40,184
11244,10728,2676,-255,-413,-155
13884,5312,8316,424,-246,-167
15540,8936,3852,-373,310,459
11652,6528,68,-332,-216,-148
14280,8608,4700,397,-66,397
18780,11760,5908,-244,667,781
11900,6576,1692,-135,-31,-268
14052,10240,4456,429,270,378
15784,11612,-1980,-349,287,19
12232,6700,3220,32,-245,-543
15000,12880,1936,275,665,57
13756,8656,540,-42,-141,-317
14400,4780,6720,233,-69,-160
13036,12388,1004,-162,287,-427
14324,5172,10544,220,-583,-501
14580,7664,3836,-113,265,337
10908,6752,3708,-202,-61,-237
12244,7696,1640,456,491,325
16564,10804,-864,-473,268,489
11320,4916,4300,-60,-516,-88
13148,12928,-4544,105,475,471
13708,8484,-160,-148,19,-180
15960,8228,3260,99,199,96
11784,12160,-2264,-57,474,-125
13300,5240,3724,417,-423,-172
16768,9520,3080,-133,122,126
10072,5360,-232,-238,-297,-1011
15132,9832,8276,365,70,-477
14800,9960,760,-265,300,72
9236,2792,4540,73,-687,-135
11508,9120,-2816,289,160,637
15160,8404,1536,-455,-137,-34
13672,6440,6264,-29,-58,-298
14108,12976,-1440,111,821,438
17904,10792,4432,-306,-99,91
12532,6192,5672,62,-243,259
15796,15784,6892,-27,653,94
15056,8244,3856,-151,-206,-314
13656,7180,8352,160,-172,17
14984,14096,2996,53,502,-28
14208,5804,5788,-21,-464,-451
13096,4516,6828,105,-317,-370
14788,11152,4184,26,611,-289
12524,6456,4144,-115,-566,-384
11256,3088,4304,12,-375,-4
12848,11008,-584,-169,433,34
13064,9312,-160,-423,-546,-97
12000,5840,3572,63,-222,136
13208,12604,-3560,187,600,478
17524,10040,5708,-423,61,-72
14072,7560,6172,13,-487,-509
15372,11276,8456,487,209,235
16512,9764,864,-203,427,-105
10740,6208,5244,-157,-954,-676
11216,5664,1992,475,30,-13
14064,9284,80,-203,396,580
9140,6468,-1036,-270,-42,-237
15464,8196,5240,352,-54,201
17316,11372,5396,-220,289,658
13360,10976,3772,-287,-100,21
15276,8532,7080,363,-37,-231
16740,9328,3364,70,285,249
13776,13732,728,87,540,13
14624,5600,8900,-4,-649,-681
12204,5188,6428,106,-371,-116
13268,10416,3920,78,238,305
14432,6988,4848,-395,-274,-130
11500,3064,6400,-167,-381,-211
15464,10412,4936,305,649,573
17376,11216,1460,-332,237,699
11052,6324,-712,-120,-404,-353
13676,10344,1628,486,350,192
18576,12456,2672,-315,392,305
10352,3252,516,52,-739,-389
13168,7560,3132,497,241,-22
15784,9088,4036,-356,168,-257
9320,2464,4556,94,-563,-294
11668,8852,-3968,195,262,592
17492,9096,6116,-484,80,51
12156,5468,4756,10,-580,74
13784,13080,-4776,83,773,258
16000,9696,6764,-166,-216,-465
13992,7952,2232,192,89,158
14128,13840,1136,73,457,-96
15680,5988,8916,178,-462,-717
14784,7900,4412,-131,84,214
10272,5832,2412,-227,-210,-243
13164,7308,4764,396,280,399
17240,11104,1012,-354,264,564
13064,6048,8392,-55,-647,-301
14476,13480,1552,72,738,7
15840,7776,8280,175,-290,-413
15696,6604,3160,24,104,0
8772,8392,-2820,-245,-164,-737
11408,6596,3304,526,-78,199
16004,9280,2452,-380,419,536
12368,5068,7144,-78,-479,-7
17188,13024,6904,109,555,371
14268,8340,2756,-126,-557,-227
16768,8564,6184,19,-30,250
12604,8476,3636,-80,377,-764
11232,4868,-648,514,126,-380
15916,7452,3152,-210,590,383
11008,3228,3588,-20,-241,-181
13656,14560,888,-85,474,411
14788,8452,4396,283,-166,-49
16632,11412,2952,-95,357,487
10992,4988,4276,-107,-754,-808
13372,10856,4404,345,662,158
11436,4984,2756,-31,-383,-31
16380,9132,5448,-120,270,851
12140,7616,-228,-322,-239,-598
14912,11512,5344,413,171,377
12892,5644,4800,-113,-265,-411
11640,5852,1032,145,-57,309
9900,6176,1224,-219,-217,-112
14056,10032,2976,428,269,601
17328,10556,588,-385,-58,102
13164,8432,-52,163,85,121
10956,8340,-524,-171,67,-593
12496,7324,5708,525,-71,-60
16692,9172,3360,-384,370,140
14220,7236,6764,-20,-368,327
12796,12156,332,-239,263,-272
15052,6272,6288,590,244,-214
17412,9624,2708,-358,267,-349
12892,4072,7440,118,-188,-228
11868,11208,-2264,-283,339,-80
15216,9568,5488,374,-74,195
17476,11292,120,-384,320,116
13048,6100,5032,190,-448,-87
11300,9520,-788,-169,-72,-492
12792,6552,4832,482,-279,124
16896,8648,628,-419,544,326
13424,6352,6660,64,-279,397
11676,10796,-3056,-217,277,-319
15988,8240,10200,434,-127,-311
12552,6408,-72,-378,-427,-227
14548,6476,3584,-66,85,512
12188,7608,672,-264,-182,-290
15064,12948,3160,427,762,358
15212,6700,7488,71,-473,-640
15308,10180,5512,-276,75,231
10116,3276,1660,-233,-453,-454
14840,14412,3072,-87,179,333
13740,6948,2292,381,18,-145
16012,8520,1964,-151,389,412
10608,4196,6680,37,-812,-520
13068,10704,888,-133,650,35
15048,7344,4636,370,86,31
19320,12228,5396,-358,560,505
13148,6344,3928,101,-470,-367
14680,12780,988,-17,295,-219
13596,7260,8288,425,-336,-223
16116,9088,5072,-369,363,428
12824,6108,6816,37,-339,160
13316,13064,-704,-158,471,-62
15076,6264,6540,526,188,-124
16288,9548,32,-349,218,-296
12972,5020,5360,3,-381,127
12136,13016,-880,-250,147,226
16440,11476,8592,439,175,24
17504,11244,-1520,-329,324,-67
13424,4884,6792,63,-121,-692
11272,10236,-2800,-179,27,-51
13812,5996,5312,309,135,-6
18892,11660,6328,-364,236,625
12116,5088,3196,48,-310,-503
12172,12368,-3416,-13,320,-220
13176,4900,3940,376,-376,-419
15088,8768,1272,-254,375,484
11576,5236,1416,-138,-403,-139
15700,14476,6864,16,676,114
15800,8264,6312,235,-172,-361
16692,9024,3356,-187,297,-27
7612,2212,-1132,-11,-1021,-352
12272,8988,-1584,203,944,392
14540,6760,9356,75,-257,5
16848,10768,4248,-256,253,422
12236,6848,5032,18,-346,-484
12256,9636,-1008,422,918,64
11380,5372,4044,-45,-628,-230
15088,7444,5356,-147,279,619
13064,8260,4432,-271,-370,-187
15004,10872,5560,404,298,261
17492,10996,5568,-272,-415,-171
13796,4680,3360,230,-94,-8
10952,9616,-2004,-211,11,-432
13024,5448,8520,338,-499,69
15784,10244,1792,-426,351,547
12780,5732,6224,4,-826,47
15812,13288,828,-58,663,-67
13248,5936,772,269,-54,-464
16044,6660,3656,-112,218,-78
10148,6836,404,-245,-432,-630
11880,6176,3500,387,192,278
16704,8816,100,-381,524,382
13044,6412,6500,58,-360,186
12860,14540,-2652,-79,575,73
15532,9100,6088,375,-230,-106
15840,9396,2840,-78,281,233
12304,6576,6984,-68,-915,-621
9748,7172,-5036,496,499,664
13836,6396,5932,-222,-544,-85
15280,8472,3804,-91,-180,798
13520,11720,5704,-221,-340,190
16204,10488,9312,341,-117,-177
18984,12632,4968,-320,337,146
11920,2304,1960,178,-657,-385
11908,10328,-4368,3,549,-355
12620,3456,5768,221,-257,-275
15792,8136,4596,-225,449,374
11256,6200,148,-180,-93,-400
14008,10532,772,344,577,667
14404,9336,1220,-146,-197,-275
16876,8172,4932,79,-70,370
9624,7552,-5552,-133,224,-905
14856,10132,9816,455,7,-197
14668,7712,-376,-433,-40,44
15080,6708,9228,-134,-180,-67
13684,14428,-1428,-169,270,410
16012,6172,9904,380,-42,-144
16716,12272,3476,-182,575,399
11312,4516,3788,63,-615,-340
13500,10104,2860,497,772,196
13028,6756,7340,-94,-402,-514
12308,5132,2120,104,-56,450
9152,6248,-2080,-289,-238,-55
14440,8288,8312,301,-12,334
16560,11088,448,-416,193,401
11908,5892,3716,-21,-448,-157
14424,15744,88,-43,546,-96
14956,7056,6960,325,-374,-252
16144,9820,4332,-207,105,-38
9644,5536,-2044,-187,-686,-669
14076,10032,8100,489,328,453
15780,8188,3728,-428,-193,-54
14112,6876,2872,-32,-263,195
14244,14288,1876,-211,235,385
16004,5732,10052,364,184,22
16568,12012,2956,-176,452,326
12112,7084,3344,-149,-364,-669
12596,8168,900,504,432,-176
14708,8268,5108,-354,-181,-413
10900,2860,3520,167,-205,-193
12160,11564,-3156,-165,785,18
13120,5736,676,193,-35,149
15892,9164,3852,-250,291,586
11944,8248,-1556,-324,-119,-882
13024,10912,-560,461,257,172
15116,7740,4620,-313,-364,-432
12712,4888,4304,52,-587,-251
9648,10160,-4220,-191,17,-69
13500,4536,6056,281,-83,-80
17040,12800,548,-315,589,820
12308,7168,2164,-149,-714,-472
14876,11668,664,369,790,207
12396,7040,-2248,2,-172,-326
12960,5316,4588,70,-59,293
10516,10688,3608,-318,-516,-103
14964,8416,7740,343,22,157
16944,12124,296,-316,403,596
12152,5660,4304,-19,-615,-299
15420,13104,724,62,630,-77
12688,4680,-664,134,-368,-558
15092,6776,4276,-40,137,110
8716,5912,-656,-263,-387,-387
13040,7428,5648,397,466,279
15900,9348,-1240,-398,373,381
12916,6372,5696,39,-422,207
14048,15956,-480,-121,240,152
14476,8004,4228,246,-316,-272
16580,9412,3164,-82,78,187
14076,9448,6008,-275,-370,-1052
12436,8960,1984,372,-117,-111
14552,7912,-400,-302,321,116
14264,5164,8992,58,244,-235
13224,13652,-3120,-113,945,172
13876,6192,4032,318,-114,208
16900,11956,4552,-263,421,391
12116,6632,3664,-76,-178,-641
14360,11184,4496,473,297,379
15164,7596,4268,-151,-356,-477
12040,5720,2424,171,-144,249
9632,10088,-804,-273,-275,-66
14000,7288,6348,391,20,236
17928,11436,3748,-388,269,649
12208,5848,3096,-22,-700,-137
13976,12400,-2212,57,606,5
15424,6752,7324,366,-194,-323
15740,7200,640,-179,58,-130
8904,5740,-660,-143,-158,-781
13016,9580,5188,504,504,329
15160,8816,-624,-412,112,20
14988,7144,4184,15,-282,439
12760,12456,-1100,-155,292,183
14220,6748,3560,391,-219,-194
16552,11216,4192,-103,250,516
11876,6124,1336,-150,-602,-868
11244,9676,-996,332,121,26
12780,7320,2852,-157,-441,-191
14512,6656,5004,-17,121,403
12020,10464,4284,-254,-196,212
13940,10208,4404,524,286,515
17744,10204,5584,-435,-98,-190
15112,6260,3564,226,73,312
10056,7964,-5392,-113,210,-649
13896,10020,7632,503,23,-103
16364,7588,4352,-407,7,-8
14588,7316,3124,-20,-87,455
12868,12668,796,-140,119,195
15640,11744,6152,373,59,-186
16576,10432,-40,-241,43,-83
13812,5452,7540,-14,-353,-462
10888,10852,-2336,-149,69,-237
13232,5792,4204,322,-259,-2
17396,11460,1472,-352,528,656
12944,5016,4640,-84,-672,-50
14836,12160,2272,337,942,198
12996,7460,140,-168,-286,-194
12152,3488,1436,154,-161,-418
14016,13216,3844,37,765,-358
11604,5812,4800,58,-483,-86
14372,7308,4868,-118,-88,530
11816,12464,-4288,-204,351,241
15592,8060,6044,313,-172,72
16488,11756,4120,-258,345,307
11420,7544,-536,-236,-233,-630
14372,6332,3508,549,111,-374
15592,8836,2804,-265,186,93
11272,7208,7836,-175,-1056,-443
13420,9152,5652,508,310,393
15048,7492,-744,-360,546,225
12324,4968,6592,-170,-591,-71
16528,14060,3836,183,513,468
15352,9416,1636,-252,74,-67
14324,7652,6280,77,-197,-139
15232,15096,4232,11,305,52
12748,5732,-1268,213,-50,-531
14468,4840,4952,118,98,55
10172,9860,-4,-175,-50,-379
13812,5512,6348,377,-173,-118
15400,8188,5132,-352,346,313
8948,6500,-1692,-372,-74,-277
14864,9960,5460,415,71,445
18036,11196,4764,-324,556,623
12992,6268,3868,-126,-257,-495
13576,10076,2008,461,471,211
17204,10472,4132,-306,303,-50
13032,3660,7424,183,-590,-428
13436,10948,-1496,67,355,-347
12572,6076,2916,-51,-348,-470
11900,4740,2448,120,-316,439
11416,12164,-2300,-295,-13,-52
13756,5412,4776,160,-212,-83
16152,10516,3688,-247,339,731
11208,7908,1520,-181,-250,-286
13056,10000,1432,411,56,217
17188,11288,-1528,-334,124,-73
12252,3504,2920,165,-448,-464
13232,12484,-2048,7,711,-431
12600,5180,4420,201,-275,-363
14836,7364,2332,-209,449,412
10316,7156,1996,-297,-223,-224
14216,9976,5724,426,220,618
16352,11096,-1936,-346,372,233
13144,7104,5692,21,-314,-312
15780,14928,4280,55,299,-31
13368,4416,4440,275,-451,-465
15384,8944,2016,-216,163,-147
11516,9636,4024,-245,-454,-491
13844,8644,7428,386,162,203
16392,10844,3552,-407,409,465
13068,5820,7396,-88,-466,-64
16996,12816,7832,197,613,475
15516,8444,6420,-182,-37,-195
13620,7640,2940,194,43,158
13760,11812,4420,127,552,42
15396,5580,7968,287,-231,-577
16164,6400,5444,-115,255,-45
10588,9008,1308,-231,-369,-416
12276,5172,5428,535,-93,181
16228,10452,3504,-417,410,481
12500,5116,6312,-276,-600,-427
15316,10664,3940,327,617,682
15536,9584,160,-390,90,285
13020,5932,5660,10,-488,-287
15440,13600,-624,148,798,-76
14800,9552,2680,-67,-91,-186
12884,4448,4704,269,-191,-173
14192,11764,-804,-72,570,-509
12896,5332,4148,156,-185,-457
11960,5340,2416,10,-16,630
11140,8956,4556,-333,-301,-4
14576,5700,6224,294,123,-59
18328,12220,7060,-373,534,610
11284,8460,1496,-261,-77,-430
13640,11720,1528,342,-107,36
18000,11740,1476,-245,567,212
12228,7164,4432,112,-807,-310
12508,10508,556,376,250,165
15128,8236,1272,-361,-313,-416
12036,3276,6432,129,-206,-276
12316,11276,-876,-61,673,86
13940,7404,5396,23,-333,-20
15976,9080,4172,-39,195,880
11624,9800,-1968,-336,-310,-318
14828,9012,-320,493,398,-215
15988,8796,-484,-193,404,253
9308,3536,1060,-74,-637,-747
11236,9024,-1696,444,241,524
13328,6104,5076,-237,-393,-169
14140,4540,6696,-52,-36,168
13492,12996,-792,-300,164,261
14564,7860,3876,370,-10,150
16976,12128,4584,-241,485,439
12504,8360,1768,-144,-286,-756
14460,8524,7644,518,341,-24
14904,7832,-1708,-368,-80,-455
12020,3452,6284,178,-138,-97
12648,11568,-3636,-155,1016,-75
15892,6324,8332,298,89,262
15736,11260,2200,-300,508,382
13276,9036,4800,-225,-9,-843
15908,11284,10244,424,-40,306
16980,8444,6096,-287,-457,-500
11916,5596,2796,76,-449,313
10376,11452,-4756,-293,-8,26
14856,7112,5732,317,-63,198
16604,12468,-2016,-380,548,408
12248,5712,2976,104,-436,-343
14808,11092,332,192,634,-33
11720,5592,512,64,-430,-655
13664,5916,5460,-33,-150,358
9592,6508,-328,-195,108,-158
15296,9308,8124,388,235,389
15444,9720,-1904,-380,170,491
12292,5564,3104,27,-466,-319
16020,14012,4944,7,512,-57
13536,6224,1980,283,54,-580
14248,8368,1964,-134,200,80
9044,7932,336,-91,-93,-241
13136,7792,4248,424,469,430
16716,10888,-320,-375,370,391
12804,5680,7048,61,-418,6
14664,14408,3468,-33,501,19
14624,5952,3656,383,-451,-220
16532,10164,5300,-273,244,87
7652,1308,-1104,13,-774,-175
12988,8944,-144,156,784,347
14228,6956,7632,42,-448,121
16940,9356,3592,-220,250,355
12156,6960,2780,-86,-351,-801
15320,10804,10140,351,264,155
13548,6492,7740,-75,-435,-254
14016,6628,4456,-129,53,705
12228,7656,3764,-202,-42,-137
13276,10796,2284,457,412,140
13024,7540,-132,-230,-544,-262
13784,5988,5760,121,-209,-192
9680,8572,3060,-190,-213,-167
13576,7360,5640,346,67,236
17688,9940,6252,-314,353,468
13796,5748,7408,30,-306,16
14740,12812,5368,-28,425,-127
14964,6720,7456,418,-214,-458
14916,9708,736,-236,263,293
10024,3020,7604,-50,-801,-231
13196,13124,-940,-143,458,258
13936,6828,7440,42,-335,45
16816,12140,3400,-204,308,480
12652,8532,2244,-238,-237,-798
12496,10268,-2348,527,168,64
13376,7628,2056,-273,-400,-524
13072,5688,6648,112,-385,426
10444,8248,2192,-314,-305,-16
14624,9084,5060,422,150,484
17068,10736,5356,-333,287,162
12952,7180,3760,172,-201,49
9360,8052,-5424,-209,-158,-451
11428,5416,1176,441,-239,-318
16136,6488,5760,-297,385,277
12860,4608,7508,-59,-193,-32
12176,13056,-1576,-221,-31,397
15564,9008,3404,406,74,-179
17288,10124,-148,-272,397,203
11708,2516,2224,83,-216,-800
13692,13108,2756,-134,-35,-153
13564,5692,4336,367,-124,-24
16796,11424,1324,-458,392,639
11136,5652,1624,82,-397,-96
15400,16688,1668,13,753,114
14640,6392,6144,545,-131,-276
14240,9516,584,-258,402,78
9352,2140,820,62,-582,-90
12620,11780,-4188,-313,458,13
17548,9392,9448,295,-262,209
17032,12740,-508,-315,608,420
13220,5328,6036,88,-501,-335
14248,11676,-1480,77,646,-301
13064,5400,4920,277,-635,-428
16024,10524,5276,-327,328,503
12956,5940,7380,-124,-430,-58
14368,13520,4192,-66,508,168
15772,6160,7824,455,-97,-208
15564,8560,3368,-241,244,177
9232,1600,136,27,-1015,-259
12168,11748,-3408,-110,1167,-16
12572,5136,340,343,-48,32
17928,12724,1472,-365,596,343
12292,5912,3644,87,-585,-419
14412,12792,2412,-114,415,-478
12240,5244,4120,479,-148,-145
17516,10572,5704,-419,619,448
12656,5468,7688,-23,-829,121
12876,15476,-4252,-63,320,76
13400,4504,2608,540,-154,-214
15480,10068,328,-302,402,-12
10732,4536,7452,6,-899,-112
14340,13400,500,-33,989,81
13488,7340,3196,313,-14,245
17944,12296,5456,-292,528,344
12396,8620,2364,-29,-344,-571
12396,9060,-1452,485,654,287
12664,6268,2468,-100,-379,-397
14680,6848,6176,42,12,590
11228,10044,3144,-311,-470,148
15084,7088,4960,419,59,132
17300,11524,860,-354,352,15
11840,3852,1964,142,-489,-329
14044,13040,2592,-59,530,-462
13928,5748,6428,231,-541,-226
16840,10640,5664,-365,369,414
11752,5780,276,-218,-210,-211
15864,12880,4136,315,747,299
14016,8292,1352,-53,-364,-296
15356,7736,4080,25,28,-15
10252,10096,1056,-177,-359,-338
13904,7632,6444,380,350,416
16160,10244,-776,-305,369,397
14232,7352,6616,69,-5,-148
11708,12048,-5372,167,700,-43
12544,5340,5288,428,-142,-499
14544,9628,4128,-327,257,383
11456,4836,1192,-316,-314,-177
14964,9944,4572,454,79,319
18672,11328,5184,-243,641,294
11220,6052,3048,-98,-466,-781
11608,4884,1400,399,-99,-170
15124,9644,1408,-358,495,508
11896,6824,2412,-119,-184,-245
14220,11436,3652,309,-56,103
17064,11700,2396,-209,451,260
11248,6912,6772,-71,-275,-882
10416,4788,868,512,330,100
16648,12500,-928,-338,501,729
11792,8056,1536,-236,-10,-347
15668,7112,6584,513,191,-197
16320,9328,5148,-196,160,37
9188,5244,2032,-135,-251,-288
14928,7312,6276,290,-145,87
17324,11436,2984,-287,509,580
12684,10308,2064,-154,-107,-543
13240,6148,3036,427,-114,-477
14232,10512,3844,-183,-74,555
8188,6056,-2652,-315,-14,-220
14404,7200,1876,476,102,279
16604,12092,3420,-131,609,350
9360,5180,-3596,-190,-400,-870
13684,6712,11108,445,-438,19
17248,11176,4712,-408,453,414
10144,9536,-1760,-142,-10,220
14960,9392,428,453,353,-335
17156,9312,4344,-88,67,214
10604,9972,1860,-192,155,-633
13824,5040,5360,132,-312,-71
15560,8712,4684,-80,-223,896
12756,12320,-2644,-195,341,-127
14928,6832,5560,276,-79,-428
13044,4804,6564,98,-362,-139
11696,11212,-2728,-26,469,105
16184,9052,1808,-396,-75,-20
12456,5948,6700,-70,-769,28
15804,11692,7252,537,495,126
17244,10908,4076,-61,469,371
13812,11204,3108,-218,64,-712
12008,5004,2620,-34,-547,-561
10112,2040,3472,58,-490,-323
13412,9668,1032,357,454,438
17376,11984,4464,-356,531,666
9756,9828,-2876,-307,-527,399
13032,6680,4944,166,-164,-103
14184,7588,3032,73,-130,-16
15496,12852,4888,449,566,356
17024,8940,2020,-213,304,240
14556,10348,7020,-303,-570,-968
12132,5528,-448,221,-308,-550
12740,4428,9080,41,-621,-80
14124,11040,7644,409,368,769
16684,9304,5536,-348,268,472
8800,6728,-1756,-259,34,-180
14924,5736,6104,132,-224,-79
14252,7088,4172,110,-111,685
14760,13332,400,165,542,614
18440,11468,6728,-356,212,394
12632,8028,1232,-260,-150,-493
15772,6088,8692,288,-194,-333
16752,9268,3596,17,301,130
13388,13820,-160,-10,483,9
16652,9092,7356,-248,-357,-211
12836,7816,4720,110,-853,-326
15280,7240,8152,573,99,-444
15436,6548,572,-179,143,-144
12688,10464,724,-135,260,-505
12364,6664,1088,-101,-350,-675
10464,2532,1300,65,-669,-596
12532,8696,2920,423,85,225
14244,9128,988,-246,109,574
8372,5412,276,-169,-355,-282
13268,6276,3776,305,-256,-71
15112,6432,6620,-80,258,674
12764,13620,-3228,-341,321,30
13720,7964,5136,18,-269,86
15804,7408,5124,115,-192,680
14684,13008,5196,-90,147,443
15396,8992,5700,-233,-44,-73
11560,6424,2488,21,-158,-151
15816,13184,916,283,889,25
17044,10892,2576,-309,-330,-149
13884,4456,8240,190,-400,-269
14680,11576,4900,449,307,316
16000,8420,4976,-332,-29,-478
11152,3300,5592,25,-529,-673
12168,9548,768,467,498,324
15136,8964,2508,-378,-261,-198
10352,3268,8084,67,-665,-63
11436,9004,-3212,237,804,414
14896,8312,-312,-359,-103,-71
13844,6876,6444,23,-287,339
14860,13056,5780,-96,334,444
13336,6968,3856,34,-178,-287
15656,7408,4412,65,416,164
15032,13680,4508,-243,35,-216
15628,7708,7912,510,-301,-156
16920,9232,6316,-227,23,-76
13780,10172,6184,-255,-262,-978
14376,10180,8764,506,39,-79
14192,9472,1264,-263,365,426
11200,3568,6124,-170,-604,-207
14480,10448,1972,185,676,514
15712,10000,6720,-230,-345,49
14416,6340,2972,130,-44,678
12908,13052,284,-223,185,-3
13836,5480,4728,479,-85,-350
15924,10004,636,-105,292,455
11848,5636,5212,-112,-634,-954
10684,8800,-1420,377,219,374
11776,6160,2512,-202,-393,-339
14176,6116,4016,-29,121,507
10588,9432,-1268,-260,-392,178
14516,7720,5216,447,137,269
16780,10724,-972,-296,378,-39
12724,5144,2972,211,-397,-219
11684,10608,-1232,-153,274,-514
12964,5924,4076,473,-137,-161
17100,11264,1260,-445,393,590
12504,6496,3864,28,-573,62
15444,16532,4036,-7,915,73
15340,7380,6528,451,-267,-345
15092,9944,1312,-284,291,128
11912,2844,4692,-5,68,-241
13252,11540,4564,-148,334,311
16336,9956,8256,399,67,-135
16860,10088,124,-354,-118,-311
12128,6688,1736,38,-427,-50
10636,9780,3160,-254,-66,-197
15772,11388,7444,397,322,632
15500,9812,3432,-270,-109,-291
16192,8032,312,103,72,377
9172,6548,-2764,-110,-181,-822
12760,9376,-1528,241,263,565
14056,9684,2272,-142,-352,83
16792,12140,4160,-220,206,395
11988,7600,1880,-8,-386,-550
12216,11240,108,126,501,-230
12652,4360,3760,204,-156,-199
16228,12184,-1872,-393,494,738
12492,5364,5112,-28,-535,-272
14588,13672,624,22,507,38
14036,5644,6840,415,-309,-648
14560,9452,3676,-235,148,560
12400,4368,5076,11,-34,-124
15156,14020,5160,-163,102,362
14272,7420,12,528,495,-126
17140,10012,1232,-295,205,-191
13176,5896,7604,47,-416,-67
12124,10620,5224,-386,-439,-119
14976,10532,7120,399,177,580
17876,10592,8180,-357,-260,-210
14348,7436,2724,165,11,307
10808,7976,824,-327,-477,-882
11340,6656,340,304,420,293
13908,10100,1408,-216,-510,69
16060,9068,2876,-120,382,498
11708,7392,1128,-98,-243,-568
12104,9664,-1424,503,899,102
11552,4592,3876,73,-460,-255
14360,7864,1648,-179,651,735
12196,6612,2740,-120,-8,-318
14204,12852,1024,285,983,210
12920,5568,-56,9,-574,-418
15000,7860,1616,-156,301,-66
10328,5292,2732,-210,-510,-293
16016,11600,5452,194,593,503
13740,8624,3340,-197,-569,-112
16044,9652,2176,-105,378,222
13248,9216,3668,-76,-395,-640
14164,11016,8400,405,100,91
12776,6436,796,-156,-504,-161
16164,9024,7240,-99,-12,653
10952,9992,-800,-157,-14,28
13496,10180,1972,485,458,76
16964,10212,3196,-278,-399,-240
13272,6236,3740,48,-412,-286
10048,9892,-1604,-233,-57,-277
12428,6756,3688,347,-175,215
18180,11300,6460,-367,261,649
11944,5824,3512,34,-538,21
15108,14724,5448,-53,435,23
13044,4884,1184,337,-443,-282
15728,9520,3752,-254,161,-11
6348,1140,-3116,-60,-1150,-196
13188,9736,1388,290,596,525
13180,7036,2664,-254,-523,-78
16356,9860,5524,-50,-57,787
13236,9068,3300,-224,157,-534
16004,11824,5844,431,33,-15
15724,7704,4540,-282,-69,-226
11632,3676,1568,36,-138,-723
8792,9360,-4164,-172,-173,-104
13888,7008,5764,356,-224,-92
17816,11180,4016,-356,532,725
12384,5568,5816,-62,-678,-14
14672,14092,4772,21,578,122
13532,7964,960,200,-68,-386
16896,7792,4896,51,263,280
14056,10096,6724,-402,-441,-1037
12912,6876,4076,485,3,-199
14136,9776,2040,-283,319,505
11212,3700,6404,-51,-464,-275
14576,10088,3212,197,494,447
17432,9616,4776,-299,-148,65
15144,8016,4280,91,-183,576
13544,14744,788,-116,485,251
14408,5788,5180,340,-166,-136
16664,10312,5024,-197,247,317
12380,8024,1408,-163,-227,-527
15908,6968,6588,500,-99,-217
17520,9240,4160,-232,417,39
10108,3780,2372,22,-548,-684
11496,9460,-276,349,212,455
16064,9028,5192,-359,-483,-315
11940,2532,4924,223,-18,-151
14436,11628,6628,-137,251,177
12984,5972,7148,-140,-391,-98
14852,6980,3700,-35,-198,691
13108,11376,5460,-150,240,356
15000,6672,5888,360,-101,24
17160,11740,2648,-327,412,392
12848,8548,2152,-333,-101,-814
16272,9008,8764,436,-36,-135
17924,10148,2528,-286,321,113
11128,4164,3140,139,-629,-453
11952,9400,-2880,411,801,113
14972,8660,4448,-279,-492,-536
13192,4960,9076,41,-352,-225
11924,11652,-5256,-31,798,-72
12860,5136,2912,155,-211,-127
14344,5948,7028,-152,-146,637
11272,9840,3096,-290,-141,73
15816,8288,5604,259,-14,-96
16556,12304,-532,-349,429,677
12792,7712,3008,-266,-236,-328
15264,10872,6096,543,375,475
18028,12100,1964,-383,211,281
13520,7348,4196,43,-368,-410
16072,12156,2948,353,873,90
17524,10076,8760,-224,-388,-215
12512,4728,4800,202,-338,-206
13244,11400,-1788,37,442,-256
13844,5436,5236,238,101,-708
14980,7696,7156,-47,-71,304
8568,5844,380,-162,-244,-161
12844,5420,6520,378,-203,185
17684,11348,3988,-426,473,577
12916,7080,3060,-129,-815,27
15448,13552,-304,201,754,134
13444,8424,-388,-64,79,-321
15780,6668,2960,192,12,226
10140,9100,-3708,-192,330,-751
11828,4732,6012,430,-413,-6
14408,9912,-1764,-345,683,569
11880,6112,1508,-248,-728,-198
14544,11952,1156,280,821,419
13824,6860,3244,-112,-91,-195
13900,5076,5120,149,-219,-60
9532,10416,1784,-192,-94,-319
14044,6652,5776,268,-261,-84
16760,12468,-1420,-372,569,715
11860,6712,376,-109,125,-369
13728,10384,1992,343,603,287
14136,8580,2336,-260,-480,-266
12656,3756,3860,58,-382,-394
9124,9256,-6236,-176,-112,-70
14156,3900,6652,245,-256,-144
16968,11848,2372,-406,368,558
11896,7244,524,-138,15,-308
15676,12648,3236,387,945,225
13164,7948,-1660,-57,-29,-173
13808,4916,2592,173,109,-22
9788,9220,-1888,-153,77,-431
12540,5236,8120,345,-438,9
14788,10240,-1640,-388,527,581
12556,5660,7300,-131,-619,-149
16468,13404,4660,208,690,294
13440,7640,1052,-55,-361,-455
16500,8636,2256,112,222,395
10584,8076,-2256,-304,-305,-1000
13748,9672,5388,391,-43,-120
14736,7308,1520,-455,-43,-162
14080,7140,1448,-9,-255,278
15548,10068,8868,414,163,190
11380,5824,1068,-152,-465,-202
13124,5592,4288,9,-17,523
11364,10516,1064,-320,-452,162
16076,7820,6208,430,-125,237
18928,11632,4452,-405,404,316
12260,6868,1632,83,-543,-348
13628,10544,-984,316,668,93
14104,5652,6632,-26,-622,-677
11980,5640,956,52,-231,449
9040,6884,704,-184,-171,-150
12892,6948,5384,349,328,355
16616,10892,-1092,-319,450,508
11708,5644,5072,44,-517,-105
16148,15828,6780,46,643,56
14676,7804,2808,131,-301,-373
16324,6784,3208,53,343,151
11700,8968,616,-328,-48,-1057
11796,6632,3584,498,-323,-155
12420,9284,-2072,-194,322,601
9504,5880,1284,-173,-675,-193
13492,7820,4120,436,452,443
17664,10824,6352,-410,308,501
12080,5192,4964,-135,-651,-120
15880,11740,3928,299,417,702
17612,10388,6324,-282,370,249
11828,5436,2952,-45,-637,-308
13912,11936,676,362,852,113
14452,8396,2388,-261,-502,-149
13164,5332,6504,164,-505,-209
13192,12804,-1640,4,434,-241
12896,6080,5140,69,-301,-612
13752,6900,4832,90,-213,438
10324,10528,1184,-256,-151,-40
14368,7036,3692,350,-65,-19
17440,10440,5704,-393,307,517
12792,7764,2308,-235,-241,-97
14300,10972,3528,490,127,514
17004,12536,-236,-391,344,310
13432,7304,4192,-62,-598,-465
15548,12704,7364,413,354,404
15000,7824,3052,-192,-393,-207
12148,2756,1852,149,-247,-672
11636,11812,-5156,-39,402,-298
12880,6292,6532,-35,-688,-386
14512,6160,7552,86,-29,504
10704,10392,-740,-326,29,-29
15320,7708,4368,308,29,45
16160,12648,-1044,-231,624,797
14112,7664,5720,-107,-263,-351
14700,12304,1812,373,429,341
16400,10820,-1488,-331,-59,-36
12624,5456,3452,143,-454,-193
13584,11900,-1008,88,429,-209
12536,4668,3036,192,-655,-627
15420,9344,5796,-261,-172,328
10140,3472,3412,-167,-613,-142
14320,10168,2560,356,574,522
17304,9912,4344,-366,-184,-5
14988,6980,5036,105,-87,658
12896,12540,-2304,-125,362,-3
13232,5864,2908,438,76,-209
17228,10008,3612,-128,159,326
14476,10156,6868,-159,267,-878
14424,6888,7824,383,-369,-422
13064,9980,-944,-245,-122,376
10348,5924,4452,-210,-511,-197
13976,8812,4136,370,25,173
16020,12560,-1180,-340,557,754
13792,7100,5264,-156,92,-514
13960,11324,3136,433,540,234
18100,11472,1296,-306,-38,-160
11936,2840,6188,84,-577,-635
10632,9128,-3548,396,686,225
13512,6976,6432,-290,-551,-81
13784,4268,7596,-150,-309,18
14672,15252,1784,-20,635,488
13272,8516,1716,136,-146,-134
17044,10456,4276,-37,350,137
12404,10748,-1284,-110,208,-393
14316,7592,8484,499,-346,-461
15280,10600,5668,-227,87,111
9068,6360,-844,-110,-428,-160
12668,7640,1808,498,379,349
16608,11544,1136,-385,357,651
13692,7212,6640,-163,-430,-309
14556,10156,4816,330,326,334
16888,10344,3384,-373,297,-77
12468,5264,4500,161,-571,-339
13652,11096,1932,454,826,112
13600,7920,2460,-234,-453,-464
10128,2880,-220,120,-248,-412
11380,11000,-3836,11,470,248
14300,7852,7060,-178,-611,-74
15816,7672,5340,17,119,565
14440,13944,2376,-199,207,371
13120,7952,2368,184,-270,97
16524,8732,3692,-108,295,254
13172,10476,656,-182,513,-407
15376,6972,7872,556,-77,-191
15444,9316,3020,-218,84,170
8744,4400,-4192,-108,-216,-901
11952,8784,996,412,-44,-128
14476,9644,-576,-233,384,426
10768,3008,4284,-132,-579,-358
14544,9916,4200,181,516,533
14596,7228,1388,-391,-145,95
12688,6112,4428,85,-101,290
12760,14884,-2352,-68,127,452
14796,8648,5108,-107,-449,-115
14796,7428,2908,161,454,258
16044,13948,6984,-91,388,-279
15436,7064,6568,493,-414,-133
15744,9488,5364,-145,54,173
12876,8568,3364,-190,-293,-930
14336,10252,8700,529,212,-324
14684,9640,1764,-222,293,337
10484,2764,4124,-129,-753,-237
12512,9584,-1348,212,681,482
16092,7872,4036,-273,-433,-65
15308,7472,3996,66,-44,729
12860,12028,-1516,-217,329,-222
14980,9060,1484,428,103,-204
16676,10960,1560,-218,445,219
12484,2848,7068,157,-401,-597
11656,11288,-1392,39,456,-93
14144,4408,7144,241,-103,-93
14664,8340,600,-349,516,497
11984,5960,2448,-212,-164,-173
14172,11732,500,389,627,469
16512,10004,5904,-124,73,-202
14216,5160,1236,213,-36,302
9348,7956,-5092,-183,220,-745
13552,7892,8904,510,231,290
16512,8336,3572,-517,-143,-38
15208,7336,4064,70,-56,838
11756,10636,-524,-248,11,-521
14236,8888,4620,573,312,144
14176,8068,3240,-191,-329,-440
14552,6304,6468,14,-155,594
12248,8284,4048,-353,-368,-122
16724,13136,6044,388,862,557
16284,10716,6992,-104,-275,-417
15960,8744,616,-98,315,64
12016,7224,7856,-170,-1078,-478
14788,10904,7624,257,716,558
12916,6236,5408,-21,-208,-12
15796,9772,3028,-293,342,317
11852,5480,5620,13,-605,-425
13728,9676,2420,47,356,-223
13832,4544,8288,170,-248,-168
17972,11240,7960,-392,333,626
12792,5968,4372,-3,-534,-351
13072,13792,-3692,91,516,72
10912,4876,1064,365,-428,-401
15388,7260,2360,-394,325,127
13416,6760,4268,83,-15,517
11752,10272,-2000,-202,212,-635
13976,9648,3444,398,67,216
12204,6200,4404,35,-530,-414
15508,9216,2940,-353,520,571
11712,5516,3524,-36,-622,-90
11504,12864,-7464,66,536,7
13856,8052,6032,509,15,-362
15088,7256,4224,-318,-363,-7
16216,8476,5844,-49,101,843
11828,8184,-120,-100,-86,-658
14048,10852,2300,9,364,-204
14120,4460,8668,350,-509,-256
17656,11220,3184,-486,333,492
12224,5852,4288,161,-99,302
12868,10348,3044,-230,118,-588
12772,7764,1568,459,366,-174
10924,5412,264,-101,-569,-182
15768,10368,3416,-318,320,585
13472,6676,5684,-144,-750,-284
12620,12508,-2776,32,333,-36
14420,7200,7144,386,-414,-416
15604,7688,1856,-355,285,173
14140,7288,3348,24,-116,556
13604,10308,3148,-247,96,-442
16052,10836,9040,458,287,122
11872,6068,660,-54,-622,-547
15144,9196,2324,-308,444,429
12564,6564,3332,-160,-743,-78
13796,15916,-2708,-103,419,96
13568,5020,3020,538,-115,-401
14972,8464,-120,-314,269,-16
12932,4032,6200,-73,-191,-23
11084,10608,344,-346,-511,230
13960,11092,2128,497,492,56
13248,6020,3408,-88,-175,-352
14744,7400,6636,-24,-114,319
12224,4776,5292,-255,-145,-290
16348,13928,3268,112,589,482
13088,6312,2384,256,16,-406
15880,9688,1756,-127,291,249
9124,4132,3360,40,-818,-316
13996,13048,2144,-58,1048,62
15312,6984,8900,281,-236,62
18524,12004,1468,-314,467,234
12608,3836,1340,146,-263,-645
13872,12628,3800,-193,-103,-357
13536,5572,5544,325,-187,29
17560,11676,2524,-387,364,549
14244,8528,5704,31,-129,-165
15112,13260,6096,-217,-139,-299
14176,9744,9700,449,64,-450
15384,7276,3152,-438,259,15
14680,7420,3576,-19,-231,385
12944,11660,3240,-215,137,-108
14592,7428,3888,462,-149,-98
16060,7412,5804,-288,-352,-478
12748,5204,6052,146,-295,224
9040,5840,-428,-223,84,-52
14928,9524,6772,359,177,625
14872,8512,6224,-149,-307,-279
16892,8512,4744,2,133,298
12028,7668,7972,-53,-432,-677
13436,10004,4376,383,397,691
13692,6600,6628,-52,-366,5
15872,10228,2728,-198,215,715
13268,7656,4600,-95,-235,-492
14464,10916,1108,314,701,-13
14304,5300,7196,253,104,-740
14888,9540,5676,-255,113,401
10524,4216,2884,-98,-507,-350
13808,12352,-1156,111,789,503
13704,7228,4240,247,-175,26
17088,12752,3588,-210,394,384
11808,7820,2200,-33,-433,-547
12760,9616,-168,467,819,161
11672,5560,2540,-25,-632,-363
14684,6200,6920,70,-97,672
9708,8732,452,-227,-37,-46
13080,9824,1972,403,356,568
17424,11288,2000,-354,127,365
12504,6044,4560,26,-475,-46
15852,15524,6312,-41,286,85
16180,7540,9404,299,-308,-418
16052,8000,1264,-18,131,279
9272,4832,-4292,-276,-497,-929
14324,8724,7036,401,14,-318
15092,7620,-292,-291,306,119
9832,3180,6412,-8,-683,-110
13376,11512,1636,-31,497,307
13396,7180,4052,-130,-530,-54
16172,9268,5784,-43,-279,920
13076,12356,3284,-205,-54,195
15708,8260,4092,403,113,-9
16972,12056,152,-176,678,346
11440,5588,2400,-57,-638,-462
14704,12524,4500,411,274,409
16456,8560,3996,-175,-463,-293
13032,4340,5404,74,-235,-595
11844,12092,-6308,68,841,-286
12112,4272,1636,189,-361,-369
13712,6568,5400,24,-114,696
8232,7320,-3460,-354,-533,-112
13604,6144,3556,339,6,39
16268,11924,-1564,-343,431,775
12756,7948,2244,-269,-283,-224
14892,9908,6208,509,143,553
18888,11472,3864,-366,285,296
12496,6688,4036,-89,-642,-577
16064,12552,7448,422,373,212
18540,10988,2688,-249,243,53
9632,2892,-704,-50,-692,-576
15888,8748,10328,406,-54,-502
13664,9324,2184,-161,160,362
10748,9964,180,-270,-338,-541
13000,4884,3944,214,-532,-193
14068,5756,5780,26,-139,616
12104,11544,-5668,-31,1082,114
15088,9172,6428,-380,-579,-136
12124,4704,4456,62,-410,97
16968,13772,6664,323,637,671
16896,10380,1132,-413,244,287
12552,8004,-132,-119,-65,-573
16168,12076,8520,428,14,-144
16200,11332,2964,-112,554,375
13568,9668,3656,-185,-239,-625
12904,4764,1408,470,-245,-374
14856,8812,672,-166,45,-232
12076,11176,-212,-139,-59,-347
11968,4268,716,211,-278,-247
12000,5576,2956,60,-303,338
13608,11108,1736,-23,772,193
14176,7100,7244,-354,-586,-28
14896,7488,6844,8,16,34
16036,13480,3400,22,361,453
15088,9480,1200,-351,-205,49
10944,4912,828,3,-293,-411
15676,13560,4536,348,612,276
18468,11436,2316,-272,268,239
12160,9104,140,-104,-264,-684
13112,4744,812,509,-134,-344
14896,6676,736,-184,148,-153
9952,9400,-444,-206,243,-667
11992,5096,2392,210,-338,-329
11832,5084,1860,173,-233,418
13596,12080,1984,-111,871,104
14872,7552,7928,-343,-330,-41
12980,5820,6060,-2,-326,130
16868,14348,4996,231,524,593
15968,9996,-1648,-385,225,261
12776,6560,3216,-137,-776,-397
13740,11500,348,460,240,87
16160,11164,-124,-164,506,280
10036,5820,-1216,-144,-384,-775
13656,4976,6956,401,-336,-471
14052,8972,1980,-158,45,24
8580,9876,-4452,-193,26,-7
14432,4812,6784,176,-251,-135
14524,6240,4652,-18,-149,776
14080,13532,1016,-62,831,351
16388,8876,9276,-228,-864,27
14936,6908,7160,86,-165,31
15980,14296,-396,87,759,16
13004,8064,-1064,-85,-84,-259
12916,4972,5600,-14,-249,-742
15492,10736,7768,165,396,-170
15532,9700,5412,-187,-461,-139
12456,3676,4700,35,-21,-280
12648,9680,-1276,-151,476,227
14984,8732,4996,-261,-388,22
12744,6404,4492,139,-121,340
15560,16480,5340,-92,169,138
15728,9164,7864,-6,-379,-385
15672,6020,3864,230,-107,420
13464,10760,2692,-150,-58,-527
13544,6580,9580,386,-182,-508
14984,10620,4932,-286,22,395
10160,2768,2732,-146,-637,-121
14624,10156,2476,267,759,509
17772,10576,5088,-302,38,139
14060,6628,2972,112,-67,608
14252,12512,4092,-259,271,-262
14540,7620,1812,444,-193,-167
16388,10368,252,-183,330,219
11116,3668,5308,-13,-618,-716
12984,11408,2972,1,350,109
13864,4260,7016,199,-303,-101
17276,11000,7096,-463,386,530
12784,7352,4308,-216,-569,-234
14572,13064,-2684,132,682,135
13984,7692,2140,210,16,-387
16112,10152,3156,-61,163,357
9548,3732,1940,-34,-713,-750
10560,11152,-5576,0,362,138
13632,5452,5832,178,-179,-93
18452,11984,3536,-299,665,748
12532,6140,4884,35,-234,-106
13372,12488,-300,-172,183,-293
15232,6836,6344,478,-186,-255
14548,7924,3456,-298,-373,-534
12728,5948,2744,69,-244,568
11584,7216,1604,-271,-245,-217
14068,11244,-664,235,829,644
13276,6608,3444,-69,-464,-119
17176,12504,4612,-267,283,375
10780,3356,2428,120,-997,-175
14204,11772,1452,32,234,-181
12692,5144,2644,238,-641,-374
15408,8612,3228,-327,454,567
11940,3088,5584,-76,-308,-234
12432,12376,-2164,-188,-76,416
14432,7412,1044,457,14,9
17916,10244,7244,-348,-214,-86
14680,5972,6588,199,-189,146
11244,8780,1492,-333,-267,-878
10992,7916,-1316,493,519,347
12628,6004,2400,-223,-570,-73
16064,9604,3028,-335,312,693
13140,6496,3148,50,-441,-292
14876,14208,4532,-175,101,-279
15248,9064,8300,570,363,-87
13144,6644,6488,-30,-640,-407
15036,9556,-1140,-308,295,434
12632,6000,3864,-29,-79,-33
12908,9344,1056,-199,127,-287
15140,12680,1852,359,673,225
11992,5144,660,284,-585,-633
14112,7996,-880,-267,270,50
16172,9680,5664,-123,-207,658
10688,5716,-600,-65,-196,-239
11992,12128,-3656,-27,383,88
14292,6064,6744,515,-32,-469
12420,6376,5752,-153,-619,-297
15580,8920,4056,-388,345,529
13076,6204,4632,5,-467,203
12364,10100,-260,-286,-108,-349
14288,9592,2552,530,775,357
13432,5148,4168,307,-588,-426
14360,9528,-2348,-328,312,185
16240,9504,5244,-74,-182,818
11200,6196,576,-29,-579,-217
15876,13540,6772,-70,111,-99
12792,8068,588,408,-2,29
13264,3984,5484,272,-419,-81
16964,9948,3724,-450,288,278
16028,9100,2796,-30,334,598
12120,4668,4504,43,-560,-319
12132,9556,-576,-168,109,-575
13248,10216,3672,417,193,290
12828,5528,2928,109,17,-128
17676,11496,1480,-402,283,529
16612,9032,3552,0,301,210
11384,7884,1932,43,-790,-333
12536,11728,8,-161,107,-390
12544,7796,6548,401,83,328
14056,6084,8064,-48,-356,-144
17888,12776,1604,-360,406,589
15096,7224,2420,182,181,225
11700,6496,540,-1,-567,-769
14188,11824,7324,-111,113,-134
11872,5760,3208,500,119,268
13968,10224,1540,-316,-632,-26
15964,11536,2716,-274,380,622
13956,7300,6892,11,-292,-530
13580,11800,2916,-170,-134,-159
15060,10232,4512,564,229,-165
13056,6216,7632,-58,-705,-399
12908,7140,-748,-259,113,454
11804,5172,5536,-234,-430,-173
12928,14296,-1216,-108,428,425
14884,7796,5788,363,74,-103
16904,10372,4212,-319,-541,-281
16408,6004,7536,121,105,94
10220,6808,1148,-194,-692,-505
11288,11112,-5768,-162,115,114
15280,8236,3596,357,32,242
14488,8984,1620,-321,-215,11
17368,11520,4120,-128,208,262
12544,3876,8400,87,-476,-694
8848,9756,-5408,-91,288,-108
14292,11452,-912,356,348,453
13108,7628,2180,103,-116,-79
17624,10772,2720,-162,525,445
12436,4088,3196,142,-60,-507
11632,11796,4340,-271,-430,-381
14924,10644,5316,211,474,548
14288,6576,8988,125,-309,28
19028,12484,3648,-316,704,287
14076,5412,5252,208,-247,70
10412,7060,3120,-156,-237,-679
15220,11848,5392,-193,386,165
14996,8068,5028,309,-86,189
14284,10104,404,-279,-95,-313
15940,9408,680,-150,188,106
11084,3356,3820,160,-266,-196
11440,9320,2616,-297,119,-125
15484,13888,564,172,524,475
14456,7292,4312,453,-65,-292
16836,8436,6044,-296,-233,-391
15460,8224,7784,-35,-29,485
12236,4480,6784,-162,-417,-252
12032,13224,-1420,-128,132,398
15116,13608,2968,395,555,184
13696,6236,2400,311,78,-453
15932,10168,1728,-287,448,-3
12236,4696,5064,31,-353,117
12040,8136,2412,-354,-153,-186
15888,13512,1892,77,396,400
15120,7556,5152,441,7,-117
16464,9572,-464,-236,183,60
13556,5992,4484,78,-137,165
8968,5704,400,-120,-619,-112
15968,13756,5212,62,872,179
14928,6760,6860,295,-12,31
16484,11352,408,-428,304,33
14676,7848,1800,161,130,320
11540,6008,4188,-148,-285,-927
14020,9276,7000,199,194,50
13244,5856,2864,304,-533,-70
17536,10952,1908,-415,331,472
14604,7560,6524,72,-246,695
13076,9840,1260,-282,325,-783
15100,12980,3840,451,797,246
15328,5288,8296,198,-640,-701
15804,9268,5688,-326,3,283
13692,5380,4548,-10,-302,190
10744,10240,-424,-246,118,-45
16856,12420,6980,356,660,764
13648,6744,4060,166,-104,-367
18092,11444,3212,-170,578,451
12944,5228,4344,171,-407,-208
13568,11116,1468,-137,169,-620
11720,8228,728,476,197,-75
11764,5580,1220,-77,-645,-147
15188,8340,3992,-281,269,495
11868,5180,3812,-207,-396,-241
14640,14528,3996,-141,483,376
14004,6868,1552,446,188,18
13380,9176,-1148,-324,-465,-172
17056,9700,4508,-27,129,371
11268,5064,4444,-32,-347,-689
14684,10940,4868,10,237,-279
13660,6304,8796,360,-261,-413
14980,10156,-384,-295,182,276
10344,2372,2564,-18,-209,21
11324,8820,3028,-307,-303,-41
13308,8572,4264,321,135,512
15556,8840,7016,-282,-240,-5
16080,8136,5300,-153,198,580
11884,6900,896,-140,-102,-437
16084,13644,2304,39,739,-99
13844,5328,2680,335,-233,-241
17444,11372,2032,-161,336,443
12460,3900,2380,160,-370,-544
13312,11040,2964,-217,-81,-563
14364,8540,10792,544,11,-251
16348,8964,5064,-379,-294,-177
12704,4268,8244,63,-620,190
9324,7444,-1120,-208,-280,-74
14276,9816,1836,367,454,407
15040,6804,7216,-317,-453,-63
15676,8956,5796,-100,178,847
10816,5380,-112,-149,-58,-261
16344,11552,6348,144,413,530
14284,7392,6148,148,-268,-98
15372,8996,3256,-329,228,396
11744,8760,-668,-280,-92,-903
13612,10352,1592,364,606,307
16168,9888,5316,-284,-385,-179
14112,6980,6064,71,-527,-298
14980,12904,2112,96,589,21
13632,7076,3276,-46,-542,-524
14072,5396,5588,156,-178,-118
12640,12316,-1000,-41,466,-380
12668,5104,2360,153,-67,-686
12388,5904,2160,108,-148,389
10416,9692,3200,-179,140,-147
14420,5196,8856,191,-436,-208
14116,6504,4736,-188,381,481
9344,6804,-1732,-226,67,-62
15004,7628,6100,255,-242,162
16524,12468,-664,-266,663,707
13388,7796,6096,-232,-278,-179
14748,10900,5152,476,270,436
19008,12280,4328,-408,293,278
12036,6184,1836,-38,-653,-486
15688,13272,3560,438,667,414
16888,10556,3828,-247,-587,-144
12040,4376,640,157,-489,-326
15156,11628,2880,48,489,-220
11968,5436,768,28,-382,-701
12488,5344,1340,45,-135,288
9536,8480,112,-225,-247,-139
13488,5552,6732,306,-416,-29
17736,10464,5696,-329,764,549
12820,5844,5784,-241,-615,-266
17216,13708,6556,300,735,677
13580,8416,-744,-243,-73,54
14944,8224,2620,-8,-304,263
12944,13036,-972,-38,650,-148
15672,6952,8580,461,-217,-219
15476,9768,2468,-108,152,326
11076,6496,-952,-114,-429,-904
12276,8260,2376,494,329,-81
15080,8176,2280,-335,-421,-72
12752,3824,6508,21,-163,-157
11064,11328,-5880,-259,526,-67
12808,4976,1008,168,-159,-3
16224,10636,4544,-322,210,711
12144,7484,356,-204,63,-661
14088,11600,2500,354,688,290
12716,7068,528,-103,-329,-189
14064,5420,3392,116,-208,112
11304,10132,3108,-241,33,-680
10836,5708,-268,590,180,170
17668,9940,5820,-397,340,170
14332,7440,5276,-16,-208,414
13384,11220,2608,-132,418,15
15620,7876,6964,527,364,-216
18068,10180,2040,-300,154,-133
13664,5928,6080,58,-213,-464
9736,9904,-2408,-177,-113,-110
13980,8756,6028,448,441,352
17556,10604,5564,-381,-245,167
16520,8968,3632,51,269,263
13048,9712,2456,-164,-242,-557
13092,10920,2212,376,-98,-29
12256,6716,3728,-98,-669,-251
13860,7616,424,-107,228,630
11324,5596,100,-121,-102,-218
13684,12536,-4396,165,707,274
15512,8440,6612,268,-168,-347
16076,9028,1536,-110,309,360
10592,4344,5424,20,-773,-576
13752,11744,4436,-91,672,-14
15000,7460,5904,266,-3,-73
16412,11196,-1576,-408,150,539
13024,6072,5188,49,-211,-202
10548,8688,-5308,-149,-77,-190
12480,5004,920,463,-9,-469
15312,8096,3420,-257,20,32
13740,6052,4640,-60,-13,139
11340,10504,-956,-334,-466,243
16228,11612,8496,382,20,138
14944,9208,4672,-356,-368,-241
13996,5728,4692,82,-308,-159
10524,10236,2736,-265,-379,-424
12780,8184,-216,386,243,369
14112,7556,940,-256,-376,15
16744,11076,5000,-216,306,148
11668,7240,96,14,-398,-626
11228,11492,-1600,0,100,-155
14200,4532,8840,260,-529,-128
16544,11228,-488,-420,248,671
14860,7500,7060,89,-254,62
13780,9568,3496,-181,-192,-656
13392,9500,5828,424,158,104
12100,4532,2328,-27,-477,-99
16176,11136,3504,-304,454,817
12404,6776,2508,50,-320,-437
12292,11608,-1612,52,446,-44
13932,6660,6596,455,-394,-204
16032,8400,2800,-441,-126,31
14040,6960,2844,31,92,605
12448,9560,260,-216,70,-367
14036,10344,2484,431,125,313
14228,6632,6596,-70,-502,-648
12940,7540,-200,-86,270,340
12104,5480,5000,-166,-350,-423
14996,12572,4356,-136,249,315
15620,8204,7388,367,-159,-188
17044,9744,1292,-228,483,247
11944,1900,3996,32,-212,-668
10192,9712,3452,-193,-196,-73
12736,8248,1440,413,355,460
